timestamp,user_id,acc_x,acc_y,acc_z,gyro_x,gyro_y,gyro_z,latitude,longitude
2022-06-08 21:13:00.518531,10,-3.790417786,4.129462738,6.701863403,-0.8562295437,-0.1515797824,-0.3018162847,37.72304966,15.18096287
2022-06-08 21:13:00.568274,10,-1.863474884,4.714745636,11.27769791,-0.6124370098,0.4822051227,-1.597588778,37.72304966,15.18096287
2022-06-08 21:13:00.618017,10,-1.031205597,3.901786194,7.007078705,-2.331904173,-0.1640306413,-1.428951025,37.72304966,15.18096287
2022-06-08 21:13:00.667761,10,-3.933669891,2.582130432,6.019731903,-3.097597122,-4.381784916,0.6772533655,37.72304966,15.18096287
2022-06-08 21:13:00.717504,10,1.219514008,0.757275238,11.08459946,0.7859761119,-0.2976674736,0.2432154268,37.72304966,15.18096287
2022-06-08 21:13:00.767247,10,1.749861145,0.06601272583,11.12965576,0.3099013865,-1.762030721,-1.150526047,37.72304966,15.18096287
2022-06-08 21:13:00.816990,10,0.8806187439,3.278332672,4.994214478,0.531596005,-3.463857412,-1.037755013,37.72304966,15.18096287
2022-06-08 21:13:00.866733,10,-0.9595046997,0.953966217,3.159330139,-0.474378705,-2.292107821,-0.2843750119,37.72304966,15.18096287
2022-06-08 21:13:00.916477,10,3.879781952,2.764301605,2.175426178,-0.8463079333,-3.474596977,-0.9226630926,37.72304966,15.18096287
2022-06-08 21:13:00.966220,10,3.759881287,-0.2477348328,4.838238831,-0.5811736584,-3.060748339,0.2290604115,37.72304966,15.18096287
2022-06-08 21:13:01.015963,10,5.491480408,-0.2079176331,3.840862885,0.266405493,-4.910918236,1.107768655,37.72304966,15.18096287
2022-06-08 21:13:01.065706,10,7.671696625,-1.580114136,4.713548126,-0.1656606197,-5.074273109,1.706840515,37.72304966,15.18096287
2022-06-08 21:13:01.115449,10,9.935738525,-6.195765839,5.310806122,-1.565340281,-3.508660555,2.923010111,37.72304966,15.18096287
2022-06-08 21:13:01.165193,10,14.02433624,-6.751260681,4.762047272,-2.706890345,-1.387277007,3.089555502,37.72304966,15.18096287
2022-06-08 21:13:01.214936,10,16.1708725,-10.19470001,12.55559052,-0.7911172509,-1.108058453,2.687130213,37.72304966,15.18096287
2022-06-08 21:13:01.264679,10,17.90995605,-4.391118622,11.42678787,-0.05590628088,-0.5641059279,1.65621686,37.72304966,15.18096287
2022-06-08 21:13:01.314422,10,14.35350174,-1.369801483,7.604486389,0.2831213474,0.07915445417,0.5056256056,37.72304966,15.18096287
2022-06-08 21:13:01.364165,10,11.94501022,-0.9645941162,5.45031601,0.543957293,-0.0763630271,-0.1965256482,37.72304966,15.18096287
2022-06-08 21:13:01.413909,10,9.861792297,-1.472787323,3.526965637,0.4420138299,0.0897577107,-0.7393977642,37.72304966,15.18096287
2022-06-08 21:13:01.463652,10,8.611292725,-1.760489044,3.66003891,0.6533354521,0.2434340566,-1.044077635,37.72304966,15.18096287
2022-06-08 21:13:01.513395,10,7.864944763,-2.005230103,2.403701477,0.5814439058,0.07703313231,-1.156167269,37.72304966,15.18096287
2022-06-08 21:13:01.563138,10,7.448211365,-2.943179626,2.928809509,0.7619703412,0.4119731188,-1.113187194,37.72304966,15.18096287
2022-06-08 21:13:01.612882,10,8.739875336,-3.322490845,2.832110596,0.8883267641,-0.1900170743,-1.294765711,37.72304966,15.18096287
2022-06-08 21:13:01.662625,10,9.388476563,-5.229525146,2.567610626,0.4546904266,0.008267583326,-1.393320918,37.72304966,15.18096287
2022-06-08 21:13:01.712368,10,10.39603134,-6.763684845,2.141147461,0.3297814727,-0.007821002975,-1.297455549,37.72304966,15.18096287
2022-06-08 21:13:01.762111,10,8.512947235,-7.065457306,0.7611671448,-0.6358776093,0.294408977,-0.8208611012,37.72304966,15.18096287
2022-06-08 21:13:01.811854,10,7.17023941,-10.47925827,0.9756710815,-0.5599362254,-0.2434530556,-0.1575358957,37.72304966,15.18096287
2022-06-08 21:13:01.861598,10,7.792196045,-7.759563904,-0.1222956848,-0.8198327422,0.2010605931,0.253067404,37.72304966,15.18096287
2022-06-08 21:13:01.911341,10,8.034691772,-7.515271912,0.8008346558,-1.211818933,0.3612662554,0.4919632673,37.72304966,15.18096287
2022-06-08 21:13:01.961084,10,6.866970062,-6.267766113,-0.254021759,-2.016452789,0.8718956113,0.7881441712,37.72304966,15.18096287
2022-06-08 21:13:02.010827,10,7.17023941,-4.038152618,1.597777405,-1.96337235,0.8104767203,0.6502149701,37.72304966,15.18096287
2022-06-08 21:13:02.060570,10,6.507417755,-3.066972198,3.497177582,-1.132468462,0.1340623796,0.9916591048,37.72304966,15.18096287
2022-06-08 21:13:02.110315,10,6.643634491,-2.135159912,3.279679871,-0.9716851711,0.220314607,0.9245927334,37.72304966,15.18096287
2022-06-08 21:13:02.160058,10,7.744295654,-1.704355774,3.664529572,-0.6851580143,0.0763701424,0.8815711141,37.72304966,15.18096287
2022-06-08 21:13:02.209801,10,9.511071625,-1.368753662,3.910767517,-0.7232246399,0.2037137896,0.6223766208,37.72304966,15.18096287
2022-06-08 21:13:02.259544,10,10.17748581,-1.646426239,4.422104187,-0.566487968,0.2592603862,0.5339099169,37.72304966,15.18096287
2022-06-08 21:13:02.309288,10,11.62407761,-1.746867371,4.699477386,-0.2155767977,0.1746842116,0.3103777468,37.72304966,15.18096287
2022-06-08 21:13:02.359031,10,11.99560501,-1.885778503,5.238057404,0.01493044477,0.1693267375,-0.03554184735,37.72304966,15.18096287
2022-06-08 21:13:02.408774,10,12.43224701,-3.391347656,4.488565979,0.7281011343,-0.263579458,-0.1048011482,37.72304966,15.18096287
2022-06-08 21:13:02.458517,10,12.90406586,-3.125799866,5.077142029,1.198027134,-0.2790878415,-0.803503871,37.72304966,15.18096287
2022-06-08 21:13:02.508260,10,12.54211853,-4.089196472,5.327571259,1.851870418,-0.5691606998,-1.230870128,37.72304966,15.18096287
2022-06-08 21:13:02.558004,10,11.32769394,-5.455555115,5.879772949,2.091932774,-0.726393044,-1.419885635,37.72304966,15.18096287
2022-06-08 21:13:02.607747,10,10.12689102,-5.155279541,5.3203862,2.030233145,-0.4547056556,-1.642198086,37.72304966,15.18096287
2022-06-08 21:13:02.657490,10,8.420738983,-5.079986115,4.070934448,2.112875223,-0.6042826772,-1.778849363,37.72304966,15.18096287
2022-06-08 21:13:02.707233,10,6.481222229,-4.758903809,3.387006683,1.875252843,-0.5734392405,-1.583014011,37.72304966,15.18096287
2022-06-08 21:13:02.756976,10,4.940925293,-4.845124512,2.146087189,1.268864393,-0.4073683023,-1.200149536,37.72304966,15.18096287
2022-06-08 21:13:02.806720,10,5.107528839,-5.258864136,1.443448334,0.7094704509,-0.5661566854,-0.6822633743,37.72304966,15.18096287
2022-06-08 21:13:02.856463,10,5.160518646,-5.342540131,1.780547333,0.001793243689,-0.2417049855,-0.08224269748,37.72304966,15.18096287
2022-06-08 21:13:02.906206,10,5.684878235,-5.621410217,1.358275452,-0.4665896893,0.04115842283,0.6032966375,37.72304966,15.18096287
2022-06-08 21:13:02.955949,10,7.098388824,-4.902455292,1.740580444,-0.6239427924,-0.1784010082,1.259017467,37.72304966,15.18096287
2022-06-08 21:13:03.005693,10,8.731642456,-5.493276672,0.384250946,-1.293045878,-0.4679821134,1.685093403,37.72304966,15.18096287
2022-06-08 21:13:03.055436,10,11.45073807,-5.399122467,-0.9970765686,-2.582662344,0.5339964032,1.910365343,37.72304966,15.18096287
2022-06-08 21:13:03.105178,10,11.87076462,-6.424789581,3.428919525,-1.327523351,0.002822402865,2.119875431,37.72304966,15.18096287
2022-06-08 21:13:03.154921,10,11.18953125,-3.906426544,4.319567413,0.09940947592,-0.9296743274,1.711039186,37.72304966,15.18096287
2022-06-08 21:13:03.204664,10,10.18931122,-2.126777344,2.589465179,-0.1893747896,-0.2846643329,1.125777841,37.72304966,15.18096287
2022-06-08 21:13:03.254408,10,8.984616394,-1.572779388,2.196532288,-0.450645566,-0.1569949687,0.5834049582,37.72304966,15.18096287
2022-06-08 21:13:03.304151,10,7.852670288,-1.522184601,1.915117493,-0.5183144212,-0.08930709213,0.4231680036,37.72304966,15.18096287
2022-06-08 21:13:03.353894,10,7.239395599,-2.067650299,3.172203369,-0.1462849826,-0.1754083335,0.3471632302,37.72304966,15.18096287
2022-06-08 21:13:03.403637,10,8.30757431,-1.732347565,3.177292786,-0.1076927036,-0.005821031053,0.1530769169,37.72304966,15.18096287
2022-06-08 21:13:03.453381,10,9.608369293,-2.830014954,3.450325012,0.03438327461,0.2186486423,0.1190173849,37.72304966,15.18096287
2022-06-08 21:13:03.503124,10,10.81351318,-3.768712921,3.74191864,0.002097668126,0.4506883025,-0.1429479569,37.72304966,15.18096287
2022-06-08 21:13:03.552867,10,11.72122559,-3.986210632,4.50009201,0.5477951765,0.2318938673,-0.02219779417,37.72304966,15.18096287
2022-06-08 21:13:03.602610,10,12.95046936,-4.676275635,4.792134705,0.9013512731,0.02955015004,-0.5879809856,37.72304966,15.18096287
2022-06-08 21:13:03.652353,10,14.04574173,-4.962929535,4.953499146,1.515176892,0.08271855116,-1.11936605,37.72304966,15.18096287
2022-06-08 21:13:03.702097,10,11.45268402,-6.205794983,4.893923035,2.219468832,-0.5198475122,-1.199566722,37.72304966,15.18096287
2022-06-08 21:13:03.751840,10,9.682165833,-5.945336609,3.700454865,2.239298105,-0.6101610065,-1.383617759,37.72304966,15.18096287
2022-06-08 21:13:03.801583,10,7.952213287,-4.908592529,2.414479065,2.064998865,-0.3703528345,-1.318492413,37.72304966,15.18096287
2022-06-08 21:13:03.851326,10,6.383325806,-4.83240097,2.344424744,2.016469479,-0.6530351043,-1.310101986,37.72304966,15.18096287
2022-06-08 21:13:03.901070,10,5.718408508,-4.692292328,1.573078766,1.753622413,-0.6659287214,-1.109153032,37.72304966,15.18096287
2022-06-08 21:13:03.950813,10,5.047054596,-5.000501404,0.9845027161,1.120353818,-0.5080633163,-0.6678338051,37.72304966,15.18096287
2022-06-08 21:13:04.000556,10,4.407285004,-5.262905731,0.8452922058,0.6927704811,-0.6874647141,0.1455854923,37.72304966,15.18096287
2022-06-08 21:13:04.050299,10,5.727988586,-6.010900269,0.4876858521,-0.249767974,-0.2077873051,0.8734888434,37.72304966,15.18096287
2022-06-08 21:13:04.100043,10,6.636000366,-6.332132263,1.154100037,-0.6253514886,-0.05245728791,1.522605658,37.72304966,15.18096287
2022-06-08 21:13:04.149786,10,8.643625488,-8.479267273,1.316212921,-1.133124709,0.03675981984,2.088802814,37.72304966,15.18096287
2022-06-08 21:13:04.199529,10,11.78125076,-7.727380829,2.550396423,-1.391135216,0.9498232603,2.190809965,37.72304966,15.18096287
2022-06-08 21:13:04.249272,10,12.12867828,-5.614524536,4.205055542,-0.1873345971,0.3084539473,1.698458672,37.72304966,15.18096287
2022-06-08 21:13:04.299015,10,10.51892578,-3.939956818,2.74035141,0.2718524039,-0.1138017848,1.329342008,37.72304966,15.18096287
2022-06-08 21:13:04.348759,10,8.662935333,-3.04227356,1.435215454,-0.3824199736,0.5030220151,0.931085825,37.72304966,15.18096287
2022-06-08 21:13:04.398502,10,7.68980896,-2.473755798,0.5596861267,-0.6897885799,0.4481427372,0.7620382905,37.72304966,15.18096287
2022-06-08 21:13:04.448245,10,6.940167847,-2.879112854,1.63115799,-0.6296426654,0.436627239,0.8007523417,37.72304966,15.18096287
2022-06-08 21:13:04.497988,10,7.602241058,-3.059487762,2.199675751,-0.6450157762,0.6174312234,0.8214746714,37.72304966,15.18096287
2022-06-08 21:13:04.547732,10,8.013735352,-3.675307159,2.492017822,-0.3419806957,0.4503887296,0.7530356646,37.72304966,15.18096287
2022-06-08 21:13:04.597475,10,9.394913177,-3.917802887,3.083437958,-0.1086351648,0.6515929699,0.8685637712,37.72304966,15.18096287
2022-06-08 21:13:04.647218,10,10.59466827,-4.646786957,3.240461426,-0.08540298045,0.4865909517,0.238712132,37.72304966,15.18096287
2022-06-08 21:13:04.696961,10,12.55678802,-4.888833618,2.449506226,-0.09400258958,0.3999519348,0.1477124393,37.72304966,15.18096287
2022-06-08 21:13:04.746705,10,13.81462234,-5.439538422,3.120710449,-0.6734958887,0.3644860983,-0.8910519481,37.72304966,15.18096287
2022-06-08 21:13:04.796448,10,13.23592575,-5.996380463,3.129841461,0.1408410817,-0.6625007987,-1.030470967,37.72304966,15.18096287
2022-06-08 21:13:04.846191,10,9.588610382,-6.333030396,4.250860291,2.231466532,-2.406494379,-1.162480474,37.72304966,15.18096287
2022-06-08 21:13:04.895934,10,7.877967682,-6.678961029,4.088897095,2.343633652,-2.886237621,-1.043140292,37.72304966,15.18096287
2022-06-08 21:13:04.945678,10,7.773484955,-6.465504913,4.265529785,1.807443857,-1.623169065,-1.34427011,37.72304966,15.18096287
2022-06-08 21:13:04.995421,10,6.098168793,-6.893764343,5.268294525,1.637316585,-1.706004024,-1.263639688,37.72304966,15.18096287
2022-06-08 21:13:05.045164,10,5.339845734,-6.500831451,4.443359985,1.420574427,-1.517297745,-1.11322701,37.72304966,15.18096287
2022-06-08 21:13:05.094907,10,4.09533371,-6.984326019,4.493505707,0.9362040162,-1.01509583,-0.5400786996,37.72304966,15.18096287
2022-06-08 21:13:05.144651,10,4.576732635,-6.526428223,4.611161041,1.080032825,-1.174398303,-0.1811305881,37.72304966,15.18096287
2022-06-08 21:13:05.194394,10,5.935756531,-7.647447052,4.070635071,0.2465695143,-0.4249892533,0.3528294265,37.72304966,15.18096287
2022-06-08 21:13:05.244137,10,6.907835083,-7.495962067,4.06015686,0.3126151562,0.01030262746,0.6239412427,37.72304966,15.18096287
2022-06-08 21:13:05.293880,10,8.115224304,-7.642207947,2.951412506,-0.4037751853,0.5911796093,0.6760255098,37.72304966,15.18096287
2022-06-08 21:13:05.343624,10,6.519542542,-8.586294708,0.133971405,0.4019300938,0.3140996695,1.318492532,37.72304966,15.18096287
2022-06-08 21:13:05.393367,10,7.367229767,-7.846083984,1.711690521,0.9237972498,-0.4401326478,1.394144058,37.72304966,15.18096287
2022-06-08 21:13:05.443110,10,8.545579376,-7.450307007,-2.19039505,0.5725642443,-0.2955152392,1.71044302,37.72304966,15.18096287
2022-06-08 21:13:54.063081,5,-3.302282867,5.110821991,5.076692963,-1.651172519,0.6199242473,-0.9256154895,37.72305739,15.18093902
2022-06-08 21:13:54.112825,5,-4.010460205,5.025050354,8.221353607,-1.122714996,-0.08146625757,-1.465768933,37.72305739,15.18093902
2022-06-08 21:13:54.162569,5,-3.596421204,4.707560577,8.003855896,-0.2741891742,-1.326548219,-2.17732954,37.72305739,15.18093902
2022-06-08 21:13:54.212313,5,-4.263733521,2.176773376,5.887706451,-2.476297855,-1.397589564,0.2461480796,37.72305739,15.18093902
2022-06-08 21:13:54.262057,5,-3.632196808,0.9154962158,8.885522461,-0.7663305402,-2.49424696,1.301707149,37.72305739,15.18093902
2022-06-08 21:13:54.311801,5,0.8497828674,0.05957611084,9.946067047,1.921533942,-1.233234882,-0.4041973948,37.72305739,15.18093902
2022-06-08 21:13:54.361545,5,-2.282752991,0.4667294312,6.837032318,1.4349792,-2.770383835,0.6208660007,37.72305739,15.18093902
2022-06-08 21:13:54.411289,5,1.114731903,2.371668091,5.615871735,0.6979909539,-3.441366196,0.5409708619,37.72305739,15.18093902
2022-06-08 21:13:54.461034,5,3.224893799,0.7698490906,8.7615802,0.467035234,-3.181148529,0.7888631225,37.72305739,15.18093902
2022-06-08 21:13:54.510778,5,5.305866394,-0.8601113892,7.785010986,-1.431618214,-1.364692569,0.6804482341,37.72305739,15.18093902
2022-06-08 21:13:54.560522,5,6.123915253,-1.014141083,12.67683838,-0.967231214,-1.45383358,0.8780552745,37.72305739,15.18093902
2022-06-08 21:13:54.610266,5,7.937543793,-0.5957611084,10.36908737,-1.424649715,-1.438722849,0.5820970535,37.72305739,15.18093902
2022-06-08 21:13:54.660010,5,6.834637299,-2.276466064,9.805060272,-1.721406817,-1.368758082,0.4718820155,37.72305739,15.18093902
2022-06-08 21:13:54.709754,5,7.377558289,-1.957329712,10.43285477,-1.616872668,-0.9182702899,0.23524189,37.72305739,15.18093902
2022-06-08 21:13:54.759498,5,6.136040039,-1.521585846,9.954748993,-1.261511803,-0.8716385365,0.0500202328,37.72305739,15.18093902
2022-06-08 21:13:54.809242,5,5.698799286,-0.425565033,10.02076172,-1.155899882,-0.3917981684,-0.1023726985,37.72305739,15.18093902
2022-06-08 21:13:54.858986,5,4.961282959,0.2359094238,9.896071014,-0.5024726391,0.3831577003,0.04551338404,37.72305739,15.18093902
2022-06-08 21:13:54.908730,5,4.915627899,1.078357544,8.215515747,-0.2133201063,0.4830760658,-0.1818277389,37.72305739,15.18093902
2022-06-08 21:13:54.958474,5,4.361480255,0.6343807983,7.940836945,0.333075434,0.3107777238,0.04682841152,37.72305739,15.18093902
2022-06-08 21:13:55.008218,5,5.43385025,0.3861968994,7.363936615,0.4124216735,0.04096370935,-0.0391215831,37.72305739,15.18093902
2022-06-08 21:13:55.057962,5,6.761738892,-1.058448944,9.455387421,0.7608315349,0.02065880597,0.184217006,37.72305739,15.18093902
2022-06-08 21:13:55.107706,5,7.501650238,-0.263152771,8.266260223,-0.007670389954,0.5082070827,-0.2527653575,37.72305739,15.18093902
2022-06-08 21:13:55.157450,5,6.80874115,-2.42795105,10.54826477,0.6437407136,0.1868116111,0.2975702584,37.72305739,15.18093902
2022-06-08 21:13:55.207194,5,7.041507111,-2.482437744,9.937085724,1.160501003,-0.7820592523,0.4184165299,37.72305739,15.18093902
2022-06-08 21:13:55.256938,5,7.064858551,-4.149670715,9.94337265,1.150300384,-0.7683864832,0.5598558187,37.72305739,15.18093902
2022-06-08 21:13:55.306682,5,6.440806274,-3.094963989,8.389753418,1.13935256,-0.6147370934,0.6503708363,37.72305739,15.18093902
2022-06-08 21:13:55.356426,5,4.924309845,-1.722168732,7.687713318,1.623873949,-0.266151011,0.5140324831,37.72305739,15.18093902
2022-06-08 21:13:55.406170,5,4.805606689,-1.433568878,4.826263733,1.166500449,0.03839702904,0.2247987837,37.72305739,15.18093902
2022-06-08 21:13:55.455914,5,4.714745636,-1.462758179,4.75411377,1.155566454,-0.07800224423,0.07139276713,37.72305739,15.18093902
2022-06-08 21:13:55.505658,5,5.539829865,-2.22901474,4.472549286,0.5404971242,0.07080456614,-0.05299230292,37.72305739,15.18093902
2022-06-08 21:13:55.555402,5,5.745801544,-2.446961517,6.225104828,0.4148865342,0.01659635082,0.05833626166,37.72305739,15.18093902
2022-06-08 21:13:55.605146,5,6.47523468,-2.672841797,5.254074097,-0.2297846079,-0.3718765676,0.008145755157,37.72305739,15.18093902
2022-06-08 21:13:55.654890,5,7.472610626,-2.973117371,6.708300018,-0.6304841638,-0.1409004778,0.1867859811,37.72305739,15.18093902
2022-06-08 21:13:55.704634,5,8.287516022,-2.062261505,5.924230499,-0.8691393733,-0.7087805867,0.05654843897,37.72305739,15.18093902
2022-06-08 21:13:55.754378,5,10.09710297,-2.336042175,7.500153351,-1.640895844,-0.05151798204,-0.5118358135,37.72305739,15.18093902
2022-06-08 21:13:55.804122,5,8.22449707,-3.564687195,8.772657166,-1.53027451,0.1981623024,-0.3021958172,37.72305739,15.18093902
2022-06-08 21:13:55.853866,5,6.494544525,-3.123704224,7.957003326,-0.7887323499,-0.3667442501,0.362323463,37.72305739,15.18093902
2022-06-08 21:13:55.903610,5,6.039341125,-1.458117828,7.153623962,-0.2492638081,-0.2875104249,0.539486587,37.72305739,15.18093902
2022-06-08 21:13:55.953354,5,5.239254913,0.3049159241,5.203928375,-0.06658194959,-0.1006519049,0.2309956998,37.72305739,15.18093902
2022-06-08 21:13:56.003098,5,4.239034882,-0.09969268799,4.53990921,0.07731964439,-0.1300017536,0.09758489579,37.72305739,15.18093902
2022-06-08 21:13:56.052842,5,5.00559082,-1.31980545,4.301305389,-0.1318138391,-0.2061818689,0.1936393827,37.72305739,15.18093902
2022-06-08 21:13:56.102586,5,6.539750519,-1.040635986,6.905290375,-0.00914901495,-0.2223549038,0.2575098872,37.72305739,15.18093902
2022-06-08 21:13:56.152330,5,7.49207016,-1.080303497,7.765102386,0.04000357911,-0.04672650248,0.2058703899,37.72305739,15.18093902
2022-06-08 21:13:56.202074,5,8.494984589,-1.017134857,8.039481812,-0.0004559627268,0.05988542363,0.08404808491,37.72305739,15.18093902
2022-06-08 21:13:56.251818,5,9.061257019,-1.678309937,7.939639435,-0.4017548859,0.2150211036,0.1481158733,37.72305739,15.18093902
2022-06-08 21:13:56.301562,5,9.025331726,-0.7270381165,10.32582733,0.6455129981,-0.1296309382,0.06748843938,37.72305739,15.18093902
2022-06-08 21:13:56.351306,5,9.919422455,-2.162702637,8.358318787,0.53403759,0.06799026579,-0.2319647968,37.72305739,15.18093902
2022-06-08 21:13:56.401050,5,9.419761505,-3.204087067,8.92773468,0.9073649645,-0.04126359895,-0.04866979271,37.72305739,15.18093902
2022-06-08 21:13:56.450794,5,8.073760529,-2.117796021,7.661817169,1.184075952,-0.07811242342,-0.1125743166,37.72305739,15.18093902
2022-06-08 21:13:56.500538,5,5.851182404,-1.800156555,6.059399414,1.482132912,-0.09526319057,-0.06632510573,37.72305739,15.18093902
2022-06-08 21:13:56.550282,5,5.195096741,-1.179547119,3.916006622,1.338788152,-0.1750481725,-0.2227297574,37.72305739,15.18093902
2022-06-08 21:13:56.600026,5,4.824467468,-1.605710907,3.680546265,1.025474787,-0.04026373476,-0.2558730841,37.72305739,15.18093902
2022-06-08 21:13:56.649770,5,5.106780396,-2.112407227,4.344715118,0.7998020053,-0.2436488122,-0.1545524597,37.72305739,15.18093902
2022-06-08 21:13:56.699514,5,6.391858063,-2.925965424,4.667144623,0.2150467783,-0.1545618922,-0.124275133,37.72305739,15.18093902
2022-06-08 21:13:56.749258,5,7.040908356,-3.603755951,4.866230621,-0.6519411206,-0.0219117403,-0.01111522689,37.72305739,15.18093902
2022-06-08 21:13:56.799002,5,6.489155731,-3.397634583,6.484365692,-0.4715395272,-0.2578464448,0.5663640499,37.72305739,15.18093902
2022-06-08 21:13:56.848746,5,9.224866791,-3.448678436,5.418282623,-1.074302793,-0.478082478,0.3905124962,37.72305739,15.18093902
2022-06-08 21:13:56.898490,5,11.15450409,-3.024310913,7.714058533,-2.086145878,0.6808240414,-0.3219477832,37.72305739,15.18093902
2022-06-08 21:13:56.948234,5,8.095914459,-3.863465881,8.252039795,-1.144176841,0.0441779457,0.2526907325,37.72305739,15.18093902
2022-06-08 21:13:56.997978,5,7.414531403,-2.813698883,7.648045807,-0.1629003733,-0.4465611875,0.770973444,37.72305739,15.18093902
2022-06-08 21:13:57.047722,5,7.261998596,-0.4837939453,5.268743591,-0.2305286974,-0.2479351759,0.3714874089,37.72305739,15.18093902
2022-06-08 21:13:57.097466,5,6.08559494,0.3800596619,4.525688782,-0.4818562269,0.2838311195,-0.1337490082,37.72305739,15.18093902
2022-06-08 21:13:57.147210,5,4.733456726,-0.3579057312,3.948339386,-0.4359500408,0.07928355038,-0.2720099688,37.72305739,15.18093902
2022-06-08 21:13:57.196954,5,5.0629216,-1.719174957,3.877835999,-0.6004667878,-0.0800838545,-0.01803600602,37.72305739,15.18093902
2022-06-08 21:13:57.246698,5,6.233936462,-1.450334015,5.608536987,-0.5936692953,-0.003714470193,0.3853452206,37.72305739,15.18093902
2022-06-08 21:13:57.296443,5,8.100405121,-2.162852325,7.443870392,-0.3664819896,-0.2670260668,0.6539009213,37.72305739,15.18093902
2022-06-08 21:13:57.346187,5,8.971144409,-1.049317932,8.894803162,-0.1570741385,-0.05773393065,0.4192449152,37.72305739,15.18093902
2022-06-08 21:13:57.395931,5,10.06970993,-2.329156494,8.452323303,-0.02795660123,-0.009006704204,0.3724022508,37.72305739,15.18093902
2022-06-08 21:13:57.445675,5,10.54886353,-0.7559280396,9.213340759,0.5449388623,-0.1636845917,-0.1058816835,37.72305739,15.18093902
2022-06-08 21:13:57.495419,5,11.26901596,-1.76333313,8.601562958,0.8963933587,-0.324624449,-0.5708934069,37.72305739,15.18093902
2022-06-08 21:13:57.545163,5,9.857750702,-2.515219574,7.499704285,1.385398984,-0.393153578,-0.5478053093,37.72305739,15.18093902
2022-06-08 21:13:57.594907,5,7.599097595,-2.129322052,6.269113312,1.764697671,-0.256804347,-0.4237832725,37.72305739,15.18093902
2022-06-08 21:13:57.644651,5,6.831044769,-1.481020203,4.283941498,1.615774512,0.1006352901,-0.5282313824,37.72305739,15.18093902
2022-06-08 21:13:57.694395,5,5.602998505,-1.375489655,3.307971039,1.57581687,-0.1153749079,-0.5833765268,37.72305739,15.18093902
2022-06-08 21:13:57.744139,5,5.329666901,-2.325264587,3.188968506,1.173716664,-0.137536943,-0.4888426661,37.72305739,15.18093902
2022-06-08 21:13:57.793883,5,5.093907166,-2.706222382,3.702700195,0.6217356324,-0.09731834382,-0.3086558282,37.72305739,15.18093902
2022-06-08 21:13:57.843627,5,6.357579346,-4.10581192,4.001029816,0.04420882463,-0.6296494007,-0.06305196881,37.72305739,15.18093902
2022-06-08 21:13:57.893371,5,7.80686554,-4.993316345,5.483546906,-1.190312624,0.149717465,0.1808863431,37.72305739,15.18093902
2022-06-08 21:13:57.943115,5,7.120243378,-4.310735779,6.540199585,-1.173771143,-0.3118425608,0.5468447208,37.72305739,15.18093902
2022-06-08 21:13:57.992859,5,7.973469086,-3.465593262,7.247179413,-1.227590799,0.01955132186,0.7261173129,37.72305739,15.18093902
2022-06-08 21:13:58.042603,5,7.868686981,-4.064048767,7.369325409,-0.7410186529,-0.421736151,1.180114985,37.72305739,15.18093902
2022-06-08 21:13:58.092347,5,10.02570145,-3.842359772,6.639892273,-0.4145877659,-0.4653528631,1.337404609,37.72305739,15.18093902
2022-06-08 21:13:58.142090,5,9.555229797,-2.35774704,5.523663483,-0.8715706468,0.3566167057,1.073172569,37.72305739,15.18093902
2022-06-08 21:13:58.191834,5,7.174580383,-1.297052765,4.727618866,-0.07667057216,-0.2444276065,1.259671688,37.72305739,15.18093902
2022-06-08 21:13:58.241578,5,6.84855835,0.2161505127,3.209176483,0.1331560016,-0.5555791855,1.068089128,37.72305739,15.18093902
2022-06-08 21:13:58.291322,5,7.372468872,0.8150550842,4.033512268,0.1414390802,-0.3658881187,0.689971149,37.72305739,15.18093902
2022-06-08 21:13:58.341066,5,7.466922455,0.5333409119,4.380490723,0.1390890628,-0.3641114235,0.3970841169,37.72305739,15.18093902
2022-06-08 21:13:58.390810,5,8.397537231,-0.287252655,5.350473633,0.06935103983,-0.3760385215,0.2072068453,37.72305739,15.18093902
2022-06-08 21:13:58.440554,5,9.259594574,-1.50586853,7.420219574,0.2303723842,-0.232077226,0.243619591,37.72305739,15.18093902
2022-06-08 21:13:58.490298,5,10.37866745,-2.071242828,8.778644714,0.7504566908,-0.80204916,0.3300578594,37.72305739,15.18093902
2022-06-08 21:13:58.540042,5,11.42139908,-2.361938324,11.62497574,2.112071991,-1.182290077,0.1518184543,37.72305739,15.18093902
2022-06-08 21:13:58.589786,5,11.11962662,-3.470832367,9.87316864,2.162419319,-0.6864759922,-0.3848574758,37.72305739,15.18093902
2022-06-08 21:13:58.639530,5,7.943231964,-6.367159424,9.179062042,2.608382702,-1.163839936,0.07530330867,37.72305739,15.18093902
2022-06-08 21:13:58.689274,5,7.825277252,-4.256249084,7.754773865,2.282464743,-0.8371114135,-0.1552335918,37.72305739,15.18093902
2022-06-08 21:13:58.739018,5,6.080056458,-3.364553375,6.919211426,2.490908861,-0.5474994779,-0.2268173397,37.72305739,15.18093902
2022-06-08 21:13:58.788762,5,5.259612579,-2.820434875,4.393064575,2.478797674,-0.7117566466,-0.3089207411,37.72305739,15.18093902
2022-06-08 21:13:58.838506,5,4.768184509,-3.657344513,4.056414642,2.163253784,-0.7618582249,-0.2377159894,37.72305739,15.18093902
2022-06-08 21:13:58.888250,5,4.582570496,-4.041745148,4.234993286,1.404104233,-0.4900827706,-0.1585388631,37.72305739,15.18093902
2022-06-08 21:13:58.937994,5,5.129383392,-4.47793808,4.467160492,0.4007054567,-0.1667186022,-0.1835546196,37.72305739,15.18093902
2022-06-08 21:13:58.987738,5,5.297932892,-5.177882538,5.49237854,-0.3779685795,0.4143993258,0.07498017699,37.72305739,15.18093902
2022-06-08 21:13:59.037482,5,6.134393463,-4.614603882,5.54851181,-0.9049937725,0.6685173512,0.278509587,37.72305739,15.18093902
2022-06-08 21:14:32.779992,5,-4.340523834,3.983665924,6.644981689,0.1816339046,-0.8882132769,0.06062844396,37.72305504,15.1809417
2022-06-08 21:14:32.829737,5,-3.813170471,3.771706696,9.097332001,-0.1612556875,-0.7382542491,0.1495448202,37.72305504,15.1809417
2022-06-08 21:14:32.879482,5,-3.157084808,3.950584717,7.665858765,-0.40343979,-0.9622591734,-0.1449386477,37.72305504,15.1809417
2022-06-08 21:14:32.929226,5,-2.516716461,4.000131683,8.593928833,0.1175706461,-0.3177917898,0.0733500123,37.72305504,15.1809417
2022-06-08 21:14:32.978971,5,-2.627785492,3.106639709,9.642049255,-0.0840035826,-0.2068143487,0.08149406314,37.72305504,15.1809417
2022-06-08 21:14:33.028716,5,-2.385589142,3.987258453,8.41056015,0.1175799221,-0.01187058538,0.04033672437,37.72305504,15.1809417
2022-06-08 21:14:33.078461,5,-2.378553772,3.516337738,9.23549469,-0.008796211332,-0.08684258163,0.1581871361,37.72305504,15.1809417
2022-06-08 21:14:33.128205,5,-2.426603851,3.827839966,8.474327545,0.04708234221,0.02520480007,-0.02902839519,37.72305504,15.1809417
2022-06-08 21:14:33.177949,5,-2.104024658,3.95956604,9.197473755,0.03185649216,0.1449318081,-0.02908362821,37.72305504,15.1809417
2022-06-08 21:14:33.227694,5,-2.245480499,3.690725098,8.594826965,0.018577585,-0.03518380225,-0.02254058793,37.72305504,15.1809417
2022-06-08 21:14:33.277438,5,-2.289039917,3.950734406,8.750353546,-0.06573040038,0.08949428797,0.04928236455,37.72305504,15.1809417
2022-06-08 21:14:33.327183,5,-2.546803894,3.589685211,8.787626038,0.06671068072,-0.006475483999,0.01360804122,37.72305504,15.1809417
2022-06-08 21:14:33.376928,5,-2.207010498,4.082161102,8.916657715,-0.02945329808,-0.01372758858,0.0493930988,37.72305504,15.1809417
2022-06-08 21:14:33.426673,5,-2.326611786,3.686384125,8.530760193,-0.01688308641,0.03966798261,0.007819528691,37.72305504,15.1809417
2022-06-08 21:14:33.476417,5,-2.329455872,3.917802887,8.7416716,-0.06094517931,-0.09327301383,0.08093824238,37.72305504,15.1809417
2022-06-08 21:14:33.526162,5,-2.424358521,3.710184631,8.446186066,-0.01361594629,-0.07078920305,-0.02145644091,37.72305504,15.1809417
2022-06-08 21:14:33.575907,5,-2.153122559,3.985162811,8.795110474,-0.06756586581,0.0002454146743,0.01215797663,37.72305504,15.1809417
2022-06-08 21:14:33.625651,5,-2.35654953,3.689677277,8.723708954,0.1191355363,-0.03415664658,0.1003847495,37.72305504,15.1809417
2022-06-08 21:14:33.675396,5,-2.289938049,3.822750549,9.152118073,-0.1001373604,-0.01896111295,-0.03230179101,37.72305504,15.1809417
2022-06-08 21:14:33.725141,5,-2.127675476,3.841910706,8.284821625,0.02442761511,-0.02745889872,0.03726388887,37.72305504,15.1809417
2022-06-08 21:14:33.774885,5,-2.330653381,3.884272614,9.072483673,-0.04663188383,-0.01675334573,0.05322565138,37.72305504,15.1809417
2022-06-08 21:14:33.824630,5,-2.279160461,3.759132843,8.665330353,-0.06204377115,-0.04323076457,0.04963568598,37.72305504,15.1809417
2022-06-08 21:14:33.874375,5,-2.235601044,3.737427979,8.689879303,-0.08396015316,-0.0178088136,0.1113199815,37.72305504,15.1809417
2022-06-08 21:14:33.924120,5,-2.284549255,3.702849884,8.814420319,-0.04890281707,-0.08020698279,0.06231374294,37.72305504,15.1809417
2022-06-08 21:14:33.973864,5,-1.960622864,3.911515961,8.889414368,-0.07413373888,0.01088364515,-0.04252265766,37.72305504,15.1809417
2022-06-08 21:14:34.023609,5,-2.079326019,3.754342804,8.664731598,0.02531427518,-0.05592304096,0.07148974389,37.72305504,15.1809417
2022-06-08 21:14:34.073354,5,-2.316582642,3.701203308,8.981472931,-0.0371501632,0.001865682192,-0.02378058247,37.72305504,15.1809417
2022-06-08 21:14:34.123098,5,-1.994153137,3.793261871,8.8013974,0.04259779304,0.08020350337,0.002808417659,37.72305504,15.1809417
2022-06-08 21:14:34.172843,5,-2.051483917,3.721261597,9.142687683,-0.0199922733,-0.02736420929,0.004421014804,37.72305504,15.1809417
2022-06-08 21:14:34.222589,5,-2.164498901,3.694916382,8.654852142,0.006087264512,-0.02481290139,0.01386538241,37.72305504,15.1809417
2022-06-08 21:14:34.272333,5,-2.091899872,3.814667358,8.826844482,-0.01923377812,-0.02203024179,-0.01831215434,37.72305504,15.1809417
2022-06-08 21:14:34.322078,5,-2.066901855,3.716770935,8.807384949,0.0131236827,-0.03022122383,0.0108667165,37.72305504,15.1809417
2022-06-08 21:14:34.371823,5,-2.127825165,3.70329895,8.89270752,-0.003433630569,0.006296032108,-0.07421758026,37.72305504,15.1809417
2022-06-08 21:14:34.421568,5,-1.930385742,3.829336853,8.860524445,0.02837083861,-0.01469400711,0.008777040988,37.72305504,15.1809417
2022-06-08 21:14:34.471312,5,-2.158511353,3.682791595,8.929231567,9.777548257e-05,-0.04836710915,-0.00420685485,37.72305504,15.1809417
2022-06-08 21:14:34.521057,5,-2.035018158,3.70329895,8.655450897,-0.01324085332,-0.01631993428,-0.05064860359,37.72305504,15.1809417
2022-06-08 21:14:34.570802,5,-2.133363647,3.791914673,8.909472656,0.03007970937,-0.02782368287,0.02203154005,37.72305504,15.1809417
2022-06-08 21:14:34.620546,5,-2.164498901,3.681743774,8.884624329,0.001626670593,-0.02165099978,-0.003321993165,37.72305504,15.1809417
2022-06-08 21:14:34.670291,5,-2.05582489,3.70329895,8.732989655,-0.002572444035,-0.01742397062,-0.001431040582,37.72305504,15.1809417
2022-06-08 21:14:34.720036,5,-2.232906647,3.665727081,8.909472656,0.01079809014,-0.01929497719,0.01559960656,37.72305504,15.1809417
2022-06-08 21:14:34.769780,5,-2.051034851,3.731590118,8.816366272,0.007838081568,-0.004708597437,0.01584006287,37.72305504,15.1809417
2022-06-08 21:14:34.819525,5,-2.010618896,3.718118134,8.98042511,-0.008940471336,0.02695803717,0.004938254133,37.72305504,15.1809417
2022-06-08 21:14:34.869270,5,-2.039059753,3.70210144,8.879684601,-0.0003125777002,-0.003730519675,0.002342950087,37.72305504,15.1809417
2022-06-08 21:14:34.919014,5,-2.04759201,3.719016266,8.818761292,-0.01463564206,-0.006086998619,0.02530744113,37.72305504,15.1809417
2022-06-08 21:14:34.968759,5,-2.070644073,3.668720856,8.759933624,-0.00510064885,-0.00615220936,-0.002332654782,37.72305504,15.1809417
2022-06-08 21:14:35.018504,5,-2.017953644,3.804338837,8.92773468,-0.009943939745,0.004884393886,0.0188324172,37.72305504,15.1809417
2022-06-08 21:14:35.068249,5,-2.092648315,3.69162323,8.918004913,0.01683856733,0.03809832409,-0.01457523275,37.72305504,15.1809417
2022-06-08 21:14:35.117993,5,-1.963616638,3.832480316,8.994046783,-0.01978963427,-0.02187375352,-0.004547550809,37.72305504,15.1809417
2022-06-08 21:14:35.167738,5,-2.033371582,3.689377899,8.654852142,0.01497202273,-0.003060228191,0.001820118632,37.72305504,15.1809417
2022-06-08 21:14:35.217483,5,-2.076332245,3.764521637,9.026678925,-0.0001285132021,-0.003203334287,0.001676387503,37.72305504,15.1809417
2022-06-08 21:14:35.267227,5,-2.041454773,3.767964478,8.866362305,0.01675052196,0.002090738155,-0.0001439363696,37.72305504,15.1809417
2022-06-08 21:14:35.316972,5,-1.955683136,3.720363464,8.867410126,-0.003390460974,0.01236316655,0.01152806263,37.72305504,15.1809417
2022-06-08 21:14:35.366717,5,-2.03950882,3.674858093,8.801996155,-0.003976368345,-0.01032186951,0.002633447759,37.72305504,15.1809417
2022-06-08 21:14:35.416461,5,-2.005828857,3.749103699,8.793314209,0.01929434389,-0.003110331949,0.004769491497,37.72305504,15.1809417
2022-06-08 21:14:35.466206,5,-1.945953369,3.748205566,8.83881958,-0.001547379303,-0.01047076657,0.006613755599,37.72305504,15.1809417
2022-06-08 21:14:35.515951,5,-2.055375824,3.704197083,8.881181488,0.003366167191,-0.003729816061,-0.02409363724,37.72305504,15.1809417
2022-06-08 21:14:35.565695,5,-1.973047028,3.819008331,8.805438995,0.04157851636,0.0112744756,0.006552768871,37.72305504,15.1809417
2022-06-08 21:14:35.615440,5,-2.124681702,3.696413269,8.964408417,-0.01697011665,-0.0138348192,-0.03499243781,37.72305504,15.1809417
2022-06-08 21:14:35.665185,5,-2.016905823,3.747906189,8.656498718,0.02302215993,0.03231074288,0.002511075232,37.72305504,15.1809417
2022-06-08 21:14:35.714929,5,-2.136806488,3.764671326,9.060059509,-0.0126835471,0.01613229886,-0.003170005511,37.72305504,15.1809417
2022-06-08 21:14:35.764674,5,-2.010020142,3.746109924,8.716823273,0.0190165285,-0.01149222068,0.03824334592,37.72305504,15.1809417
2022-06-08 21:14:35.814419,5,-2.03127594,3.736679535,8.887767792,-0.04236938059,0.006855227053,-0.01094473153,37.72305504,15.1809417
2022-06-08 21:14:35.864163,5,-1.970801697,3.771557007,8.739276581,0.02269799821,0.01388183143,0.02805430628,37.72305504,15.1809417
2022-06-08 21:14:35.913908,5,-2.07109314,3.755540314,8.991502075,-0.02430283837,-0.003419806249,-0.01538107824,37.72305504,15.1809417
2022-06-08 21:14:35.963653,5,-1.927841034,3.830684052,8.676856384,0.002786502708,-0.01432791725,0.01417188533,37.72305504,15.1809417
2022-06-08 21:14:36.013397,5,-2.105521545,3.765270081,8.915759583,-0.01185567677,-0.002904992085,-0.005946245044,37.72305504,15.1809417
2022-06-08 21:14:36.063142,5,-2.077829132,3.791166229,8.839867401,0.007279963233,0.01120195072,-0.005074486136,37.72305504,15.1809417
2022-06-08 21:14:36.112887,5,-2.03831131,3.745361481,8.874445496,-0.02039069682,-0.03842720389,0.004083672538,37.72305504,15.1809417
2022-06-08 21:14:36.162632,5,-2.039209442,3.69985611,8.601712646,0.001602114877,-0.004286494106,-0.0006238910137,37.72305504,15.1809417
2022-06-08 21:14:36.212376,5,-2.057621155,3.757486267,9.023834839,-0.003600702388,0.004248070531,0.01412216388,37.72305504,15.1809417
2022-06-08 21:14:36.262121,5,-2.056124268,3.735182648,8.775800629,0.003004335333,-0.01935645565,0.01074953843,37.72305504,15.1809417
2022-06-08 21:14:36.311866,5,-1.965861969,3.700754242,8.871002655,-0.01277231053,-0.003743433394,-0.01074861642,37.72305504,15.1809417
2022-06-08 21:14:36.361610,5,-2.02424057,3.728147278,8.854985962,-0.02021551505,-0.024426274,-0.01805086993,37.72305504,15.1809417
2022-06-08 21:14:36.411355,5,-1.97858551,3.783681793,8.787476349,-0.0006344878348,0.002025172114,0.01488390937,37.72305504,15.1809417
2022-06-08 21:14:36.461100,5,-2.107766876,3.700754242,8.983718262,-0.01200727653,-0.02354269475,-0.00575569598,37.72305504,15.1809417
2022-06-08 21:14:36.510844,5,-1.924996948,3.819457397,8.821006622,0.01143202838,0.01836579666,-0.0002772005973,37.72305504,15.1809417
2022-06-08 21:14:36.560589,5,-2.011217651,3.756288757,8.98042511,0.00167061016,-0.01571960002,-0.00553933857,37.72305504,15.1809417
2022-06-08 21:14:36.610334,5,-1.964664459,3.755091248,8.800499268,-0.03183689713,0.002789275721,-0.03206141293,37.72305504,15.1809417
2022-06-08 21:14:36.660078,5,-1.921554108,3.74311615,8.62820755,0.02388419583,-0.04373760149,0.006659110077,37.72305504,15.1809417
2022-06-08 21:14:36.709823,5,-2.142943726,3.696113892,9.051976318,-0.02559107542,0.002773306333,0.01599908061,37.72305504,15.1809417
2022-06-08 21:14:36.759568,5,-2.119292908,3.694317627,8.874595184,0.001675231615,-0.01736358553,0.01254296396,37.72305504,15.1809417
2022-06-08 21:14:36.809312,5,-1.943109283,3.713477783,8.887618103,-0.01935872249,0.02602449059,-0.0005702011986,37.72305504,15.1809417
2022-06-08 21:14:36.859057,5,-2.000589752,3.656596069,8.846304016,-0.002042355016,0.001521130092,-0.01629512757,37.72305504,15.1809417
2022-06-08 21:14:36.908802,5,-1.93996582,3.751648407,8.830137634,-0.03337254003,0.01287326775,0.005074635148,37.72305504,15.1809417
2022-06-08 21:14:36.958546,5,-1.989961853,3.653602295,8.803493042,-0.01014135964,-0.02420640737,0.02732678317,37.72305504,15.1809417
2022-06-08 21:14:37.008291,5,-2.037562866,3.705095215,8.940458221,-0.02804217115,0.005968060344,-0.009353360161,37.72305504,15.1809417
2022-06-08 21:14:37.058036,5,-1.972448273,3.772155762,8.922196198,0.01722377725,-0.006377085112,0.0117224995,37.72305504,15.1809417
2022-06-08 21:14:37.107780,5,-2.012714539,3.75015152,8.929381256,-0.01549306232,0.02448467165,-0.01704259776,37.72305504,15.1809417
2022-06-08 21:14:37.157525,5,-1.882036285,3.722459106,8.777896271,0.02351409756,-0.02228767425,0.009725793265,37.72305504,15.1809417
2022-06-08 21:14:37.207270,5,-2.041604462,3.684887238,9.044042816,-0.02192250639,0.01211654302,-0.001568860142,37.72305504,15.1809417
2022-06-08 21:14:37.257014,5,-1.980232086,3.670068054,8.782386932,0.02156060375,-0.03532231972,0.03735329211,37.72305504,15.1809417
2022-06-08 21:14:37.306759,5,-2.096689911,3.629352722,8.938212891,-0.009747918695,0.03455223888,0.001102078822,37.72305504,15.1809417
2022-06-08 21:14:37.356504,5,-1.853595428,3.714226227,8.83417923,9.537860751e-05,-0.001985230483,0.008107335307,37.72305504,15.1809417
2022-06-08 21:14:37.406248,5,-1.98442337,3.669768677,8.891959076,-0.01097579487,0.008110186085,9.928992949e-05,37.72305504,15.1809417
2022-06-08 21:14:37.455993,5,-2.033820648,3.666924591,8.85408783,-0.002008346608,-0.009395193309,0.01013323013,37.72305504,15.1809417
2022-06-08 21:14:37.505738,5,-1.945354614,3.759282532,8.881480865,0.0009759378154,-0.01187523454,-0.000874624704,37.72305504,15.1809417
2022-06-08 21:14:37.555482,5,-1.98442337,3.725003815,8.960366821,-0.02002809383,0.02058614045,-0.006906739436,37.72305504,15.1809417
2022-06-08 21:14:37.605227,5,-1.918710022,3.675157471,8.825646973,-0.009942129254,-0.002565369941,0.02242773958,37.72305504,15.1809417
2022-06-08 21:14:37.654972,5,-2.030677185,3.57815918,8.823850708,-0.02431000397,-0.07377713919,0.001949016936,37.72305504,15.1809417
2022-06-08 21:14:37.704716,5,-1.996997223,3.759881287,8.827592926,-0.004126518965,0.02230462618,0.01553667802,37.72305504,15.1809417
2022-06-08 21:14:56.980817,2,-3.916156311,4.177512817,6.243516541,-0.9687520862,-0.7918329835,-0.1429093629,37.72299849,15.18093993
2022-06-08 21:14:57.030561,2,-2.789299622,3.789669342,10.57251434,0.3722051382,-1.028914809,-0.1387845427,37.72299849,15.18093993
2022-06-08 21:14:57.080306,2,-3.155587921,3.621269531,8.229287109,-0.1461275071,-1.086925626,-0.04235538095,37.72299849,15.18093993
2022-06-08 21:14:57.130050,2,-2.349663849,3.935615845,8.883576508,0.2263926119,-0.8094197512,-0.02080707252,37.72299849,15.18093993
2022-06-08 21:14:57.179795,2,-1.997895355,3.416345673,8.973240051,-0.09091824293,-0.4520320296,0.1612138599,37.72299849,15.18093993
2022-06-08 21:14:57.229540,2,-1.550475769,4.107757874,8.687783661,0.1189405322,-0.4385196567,-0.1446480006,37.72299849,15.18093993
2022-06-08 21:14:57.279285,2,-1.58430542,3.656895447,8.974736938,-0.07431343198,-0.142789498,0.1530549973,37.72299849,15.18093993
2022-06-08 21:14:57.329029,2,-1.46500351,3.829486542,8.850195923,-0.02957102098,-0.1381746829,-0.1204272509,37.72299849,15.18093993
2022-06-08 21:14:57.378774,2,-1.401385803,3.892804871,9.146280212,-0.02567666955,-0.05077429488,0.04465669021,37.72299849,15.18093993
2022-06-08 21:14:57.428518,2,-1.526375885,3.635040894,9.159752197,0.05451189727,-0.09071102738,0.02452594042,37.72299849,15.18093993
2022-06-08 21:14:57.478263,2,-1.428329773,4.004772034,8.83298172,-0.02645559981,-0.1044248715,0.05444332212,37.72299849,15.18093993
2022-06-08 21:14:57.528007,2,-1.475182343,3.75718689,8.585546265,-0.04562520608,-0.08181943744,-0.07235673815,37.72299849,15.18093993
2022-06-08 21:14:57.577752,2,-1.0683284,4.024231567,9.439520416,-0.01403297856,-0.04223619401,0.05448435992,37.72299849,15.18093993
2022-06-08 21:14:57.627496,2,-1.608105927,3.646117859,8.925489349,0.0613752082,-0.130220592,-0.002209214494,37.72299849,15.18093993
2022-06-08 21:14:57.677241,2,-1.045875092,3.941004639,9.133406982,0.04299007729,-0.02531654388,0.04647576809,37.72299849,15.18093993
2022-06-08 21:14:57.726985,2,-1.194216614,3.807631989,8.760981445,-0.005739697255,-0.07576838136,-0.06211110204,37.72299849,15.18093993
2022-06-08 21:14:57.776730,2,-1.230740662,3.7676651,8.874744873,0.04564633965,-0.151746735,0.09163616598,37.72299849,15.18093993
2022-06-08 21:14:57.826474,2,-1.041683807,3.986659698,9.358089752,-0.03048799187,0.06104400754,-0.02468412742,37.72299849,15.18093993
2022-06-08 21:14:57.876219,2,-1.34914444,3.739224243,8.816216583,0.04921774566,-0.1262494326,0.05249478668,37.72299849,15.18093993
2022-06-08 21:14:57.925963,2,-0.8677455139,4.062252502,9.091344452,-0.0360625051,0.03556497395,0.02430185676,37.72299849,15.18093993
2022-06-08 21:14:57.975708,2,-1.276994476,3.666176147,8.922794952,0.08237333596,-0.0220594611,0.06513559818,37.72299849,15.18093993
2022-06-08 21:14:58.025452,2,-0.8568182373,4.023632812,8.943302307,-0.03805334866,-0.03460546583,-0.002879952779,37.72299849,15.18093993
2022-06-08 21:14:58.075197,2,-1.056203613,3.816763,8.918304291,0.007855418138,-0.07555729151,0.06790792197,37.72299849,15.18093993
2022-06-08 21:14:58.124942,2,-0.9404942322,3.922592926,8.985514526,-0.02631779388,-0.0475057587,0.02316243947,37.72299849,15.18093993
2022-06-08 21:14:58.174686,2,-1.039737854,3.794758759,8.960217133,-0.02784390561,-0.006690062582,0.02771290578,37.72299849,15.18093993
2022-06-08 21:14:58.224431,2,-0.8815168762,3.855532379,8.962462463,-0.002939184662,-0.04910939932,0.03601532429,37.72299849,15.18093993
2022-06-08 21:14:58.274175,2,-0.8222401428,3.864513702,9.095535736,-0.02282414213,-0.01594925299,0.01730915345,37.72299849,15.18093993
2022-06-08 21:14:58.323920,2,-0.9050180054,3.859723663,8.913214874,0.04348487779,-0.0298777055,0.05114544183,37.72299849,15.18093993
2022-06-08 21:14:58.373664,2,-0.8689430237,3.886218567,9.058412933,0.002558729844,0.05411739275,0.03132983297,37.72299849,15.18093993
2022-06-08 21:14:58.423409,2,-0.7852670288,3.903283081,8.78612915,0.01237576455,-0.1288891882,0.03685532138,37.72299849,15.18093993
2022-06-08 21:14:58.473153,2,-0.7635621643,3.900588684,9.163793793,0.00982488133,-0.0007814867422,-0.0237187054,37.72299849,15.18093993
2022-06-08 21:14:58.522898,2,-0.8279283142,3.840413818,8.873996429,0.017193662,-0.05508331209,0.02403155528,37.72299849,15.18093993
2022-06-08 21:14:58.572642,2,-0.7957452393,3.898343353,9.016949158,0.0332753174,-0.05520682782,-0.00125079439,37.72299849,15.18093993
2022-06-08 21:14:58.622387,2,-0.6655160522,3.955524445,8.918004913,-0.007856699638,-0.04083126411,-0.01638405211,37.72299849,15.18093993
2022-06-08 21:14:58.672131,2,-0.8517288208,3.848197632,8.902736664,0.05735538155,-0.08582447469,0.03085985035,37.72299849,15.18093993
2022-06-08 21:14:58.721876,2,-0.6997947693,4.035009155,9.153315582,-0.04258551821,0.008195525967,-0.007435822394,37.72299849,15.18093993
2022-06-08 21:14:58.771620,2,-0.6491999817,3.981420593,8.990154877,0.04743779823,0.02614937723,-0.01202678401,37.72299849,15.18093993
2022-06-08 21:14:58.821365,2,-0.6477030945,3.940555573,8.925339661,-0.05077878013,-0.05622299388,-0.03343193978,37.72299849,15.18093993
2022-06-08 21:14:58.871109,2,-0.7545808411,3.961062927,8.925040283,0.0608638972,-0.00328825973,0.01022528484,37.72299849,15.18093993
2022-06-08 21:14:58.920853,2,-0.6333329773,3.898642731,8.961863708,-0.0288058389,-0.02086447179,-0.009100768715,37.72299849,15.18093993
2022-06-08 21:14:58.970598,2,-0.7339237976,3.973487091,8.977281647,0.01425223984,-0.03705489635,0.0002713914728,37.72299849,15.18093993
2022-06-08 21:14:59.020343,2,-0.6138734436,3.961062927,8.94764328,0.003947511315,0.008917065337,0.006746765226,37.72299849,15.18093993
2022-06-08 21:14:59.070087,2,-0.8080197144,3.874243469,8.994645538,0.01050059311,-0.01437366754,0.01689517125,37.72299849,15.18093993
2022-06-08 21:14:59.119832,2,-0.6390211487,4.013903046,8.966204681,-0.01245373581,0.01549185161,0.01237747259,37.72299849,15.18093993
2022-06-08 21:14:59.169576,2,-0.7479945374,3.915557556,8.916657715,0.02880777605,-0.04811588675,0.02676809393,37.72299849,15.18093993
2022-06-08 21:14:59.219321,2,-0.615819397,4.042493591,8.985215149,-0.03796956688,-0.01483623311,-0.01291597262,37.72299849,15.18093993
2022-06-08 21:14:59.269065,2,-0.8074209595,3.950884094,9.120533752,0.00114830269,-0.002507747617,0.02739747427,37.72299849,15.18093993
2022-06-08 21:14:59.318809,2,-0.5743556213,3.951782227,8.800648956,-0.01118943095,-0.01130198129,0.02890146337,37.72299849,15.18093993
2022-06-08 21:14:59.368554,2,-0.6316864014,3.949836273,8.929980011,0.007102597971,-0.01318782195,-0.008125898428,37.72299849,15.18093993
2022-06-08 21:14:59.418298,2,-0.5613327026,3.868106232,8.958570557,-0.0163787473,-0.02559552342,0.0145905111,37.72299849,15.18093993
2022-06-08 21:14:59.468043,2,-0.5923182678,3.930825806,8.875643005,-0.02234587818,-0.04318128899,0.03247769549,37.72299849,15.18093993
2022-06-08 21:14:59.517787,2,-0.6292913818,3.927532654,9.090895386,0.01006259397,0.01477356162,-0.02288982831,37.72299849,15.18093993
2022-06-08 21:14:59.567532,2,-0.586330719,3.92334137,8.890462189,-0.003071051091,-0.02232773602,-0.008619812317,37.72299849,15.18093993
2022-06-08 21:14:59.617277,2,-0.6147715759,3.990102539,8.981173553,-0.0209552031,0.004093367606,0.008269181475,37.72299849,15.18093993
2022-06-08 21:14:59.667021,2,-0.6021977234,3.894301758,8.955127716,0.03258565441,-0.03001867235,0.03015558235,37.72299849,15.18093993
2022-06-08 21:14:59.716765,2,-0.5185217285,3.9853125,8.945098572,-0.03235643357,-0.003059701994,-0.03766490892,37.72299849,15.18093993
2022-06-08 21:14:59.766510,2,-0.6050418091,3.924538879,9.068741455,0.0366361998,-0.03027343005,0.01208380796,37.72299849,15.18093993
2022-06-08 21:14:59.816254,2,-0.5649252319,3.999981995,9.005273438,-0.01475990191,0.02272141352,-0.02327907085,37.72299849,15.18093993
2022-06-08 21:14:59.865999,2,-0.467328186,3.974983978,8.991352386,-0.02192409523,-0.007023103535,-0.02407038584,37.72299849,15.18093993
2022-06-08 21:14:59.915743,2,-0.5842350769,3.764821014,8.724008331,0.02827666886,-0.04118079692,0.007454959676,37.72299849,15.18093993
2022-06-08 21:14:59.965488,2,-0.5108876038,3.951931915,9.015003204,-0.05812885985,0.02555261366,-0.01744997874,37.72299849,15.18093993
2022-06-08 21:15:00.015232,2,-0.6044430542,3.827091522,8.95228363,0.02051150799,-0.05209868029,0.01456380449,37.72299849,15.18093993
2022-06-08 21:15:00.064977,2,-0.479153595,3.972588959,9.025631104,-0.06855526567,0.0431303978,-0.02320479229,37.72299849,15.18093993
2022-06-08 21:15:00.114721,2,-0.6155200195,3.844156036,9.059161377,0.01230576262,-0.02080304176,-0.03319484368,37.72299849,15.18093993
2022-06-08 21:15:00.164466,2,-0.5939648438,3.907174988,8.943751373,-0.03141306341,-0.001666307915,0.01404494327,37.72299849,15.18093993
2022-06-08 21:15:00.214209,2,-0.5304968262,3.945195923,9.086404724,-0.02441608906,-0.03122168779,-0.01318833604,37.72299849,15.18093993
2022-06-08 21:15:00.263954,2,-0.5589376831,3.916755066,8.942853241,-0.002731645014,0.007572549395,-0.01585048437,37.72299849,15.18093993
2022-06-08 21:15:00.313698,2,-0.6502478027,3.856729889,9.144633636,-0.001294626272,0.007461028174,-0.004288195632,37.72299849,15.18093993
2022-06-08 21:15:00.363443,2,-0.5212161255,3.925287323,9.01320694,-0.007112585008,0.04534721375,0.006143205799,37.72299849,15.18093993
2022-06-08 21:15:00.413187,2,-0.5935157776,3.784280548,8.762178955,-0.003449231386,-0.03873383999,0.003506179666,37.72299849,15.18093993
2022-06-08 21:15:00.462932,2,-0.5427713013,3.894750824,9.213490448,-0.02764707431,0.0356131196,-0.01745155081,37.72299849,15.18093993
2022-06-08 21:15:00.512676,2,-0.6271957397,3.816763,8.959019623,0.02550999448,-0.01862247847,0.03047060035,37.72299849,15.18093993
2022-06-08 21:15:00.562421,2,-0.5210664368,3.895648956,9.208700409,-0.02106273919,0.02341389656,-0.0300950259,37.72299849,15.18093993
2022-06-08 21:15:00.612165,2,-0.5619314575,3.840563507,8.99793869,-0.008441366255,-0.000352775678,0.003542373423,37.72299849,15.18093993
2022-06-08 21:15:00.661910,2,-0.5959107971,3.846850433,8.943451996,-0.006221729331,-0.004805522971,0.003277224489,37.72299849,15.18093993
2022-06-08 21:15:00.711654,2,-0.5795947266,3.81212265,9.001830597,-0.003176886123,0.00299285911,0.01078967471,37.72299849,15.18093993
2022-06-08 21:15:00.761399,2,-0.532742157,3.910318451,8.974287872,-0.02055857331,-0.01010074094,-0.04044821486,37.72299849,15.18093993
2022-06-08 21:15:00.811143,2,-0.6596781921,3.844605103,9.08685379,0.004892678931,0.008811837062,0.00594240427,37.72299849,15.18093993
2022-06-08 21:15:00.860888,2,-0.6310876465,3.892954559,9.047036591,0.01732647419,0.01398041472,-0.01486449502,37.72299849,15.18093993
2022-06-08 21:15:00.910632,2,-0.5390290833,3.848796387,9.000633087,-0.03615090623,-0.04823942855,-0.019819865,37.72299849,15.18093993
2022-06-08 21:15:00.960377,2,-0.6369255066,3.854334869,9.086105347,0.01429040171,0.01694764756,0.01272438373,37.72299849,15.18093993
2022-06-08 21:15:01.010121,2,-0.5647755432,3.815565491,8.978778534,-0.01260969415,0.001237778924,-0.004519343376,37.72299849,15.18093993
2022-06-08 21:15:01.059866,2,-0.5942642212,3.858825531,9.041647797,0.01655107923,-0.0247534886,0.007598279975,37.72299849,15.18093993
2022-06-08 21:15:01.109610,2,-0.4763095093,3.894750824,9.037606201,-0.003860558849,0.03074205108,-0.005148305092,37.72299849,15.18093993
2022-06-08 21:15:01.159355,2,-0.5676196289,3.800895996,8.982520752,0.008017926477,-0.03133033961,0.002594656311,37.72299849,15.18093993
2022-06-08 21:15:01.209099,2,-0.605640564,3.844754791,9.027127991,-0.007843900472,0.003436546773,-0.002685086103,37.72299849,15.18093993
2022-06-08 21:15:01.258844,2,-0.616867218,3.849993896,9.0482341,0.001435311977,0.00733659789,-0.00113621715,37.72299849,15.18093993
2022-06-08 21:15:01.308588,2,-0.5474116516,3.873495026,9.013506317,-0.001844518119,-0.001092663035,-0.005202254746,37.72299849,15.18093993
2022-06-08 21:15:01.358333,2,-0.6400689697,3.837120667,9.090745697,0.005685410928,0.001365110278,0.008914526552,37.72299849,15.18093993
2022-06-08 21:15:01.408077,2,-0.5053491211,3.910617828,8.996591492,-0.004374668468,0.00834708754,-0.01452643704,37.72299849,15.18093993
2022-06-08 21:15:01.457822,2,-0.5737568665,3.822750549,8.835227051,0.009768450633,-0.01828759536,0.002396097407,37.72299849,15.18093993
2022-06-08 21:15:01.507566,2,-0.5098397827,3.899989929,9.247769165,-0.01593173295,0.05640573055,-0.01025597192,37.72299849,15.18093993
2022-06-08 21:15:01.557311,2,-0.6322851562,3.760480042,8.82594635,0.0260764081,-0.07181926817,0.03766004369,37.72299849,15.18093993
2022-06-08 21:15:01.607055,2,-0.4715194702,3.925437012,9.117539978,-0.02663726732,0.06917393208,-0.01306970324,37.72299849,15.18093993
2022-06-08 21:15:01.656800,2,-0.5842350769,3.756588135,9.002279663,0.00762780197,-0.04017105699,0.009986106306,37.72299849,15.18093993
2022-06-08 21:15:01.706544,2,-0.6408174133,3.826642456,9.024433594,-0.02352573723,0.02461530454,0.003046251601,37.72299849,15.18093993
2022-06-08 21:15:01.756289,2,-0.5897735596,3.835623779,8.918753357,0.007734073326,-0.04262066633,0.02168289013,37.72299849,15.18093993
2022-06-08 21:15:01.806033,2,-0.54292099,3.894301758,9.122928772,-0.02533415891,0.01685073599,0.00126591837,37.72299849,15.18093993
2022-06-08 21:15:01.855778,2,-0.6280938721,3.806883545,9.135802002,0.008317096159,0.004606328905,0.01161317062,37.72299849,15.18093993
2022-06-08 21:15:01.905522,2,-0.5345384216,3.853586426,8.87624176,-0.003930198494,0.02352873608,0.01230845973,37.72299849,15.18093993
2022-06-08 22:14:54.303377,9,-4.299209747,5.435945892,6.452182617,-0.3773312271,-0.7435739636,-0.3385241032,37.72305623,15.18088825
2022-06-08 22:14:54.353116,9,-3.69985611,4.568649445,7.652835846,-0.5540110469,-0.9484985471,-0.2697886825,37.72305623,15.18088825
2022-06-08 22:14:54.402855,9,-4.032314758,4.718637543,8.647068329,0.2927666903,-0.8124482632,-0.3607501984,37.72305623,15.18088825
2022-06-08 22:14:54.452595,9,-3.578608246,4.381239166,8.364755402,0.1326841414,-0.409712851,-0.1503261626,37.72305623,15.18088825
2022-06-08 22:14:54.502334,9,-3.655548248,4.629872131,7.574249268,-0.2820470631,-0.7416104078,-0.1973310262,37.72305623,15.18088825
2022-06-08 22:14:54.552073,9,-3.413651276,4.578079834,8.94524826,-0.02641374618,-0.6216850877,0.03697840497,37.72305623,15.18088825
2022-06-08 22:14:54.601812,9,-2.492466888,4.583019562,8.154442749,0.1395507306,-0.561514318,-0.03510954976,37.72305623,15.18088825
2022-06-08 22:14:54.651551,9,-3.146905975,4.138294373,7.22996521,-0.1126564443,-0.4091539085,0.1499502063,37.72305623,15.18088825
2022-06-08 22:14:54.701291,9,-2.772684174,4.750072174,8.105494537,0.06910672784,-0.5334591866,0.22501342,37.72305623,15.18088825
2022-06-08 22:14:54.751030,9,-2.832859039,4.579576721,8.366851044,0.3050119579,-0.6955046654,0.3010393679,37.72305623,15.18088825
2022-06-08 22:14:54.800768,9,-1.664239197,4.944068756,9.508227539,0.1020454317,-0.02294543758,0.1623912156,37.72305623,15.18088825
2022-06-08 22:14:54.850507,9,-1.650467834,4.629722443,8.624615021,0.0761898905,-0.00445230864,0.0855788663,37.72305623,15.18088825
2022-06-08 22:14:54.900246,9,-1.889520721,4.496798859,8.128995667,0.0132026542,-0.07187004387,0.1486791819,37.72305623,15.18088825
2022-06-08 22:14:54.949986,9,-1.749561768,4.606371002,8.070617065,-0.08943401277,-0.05719649419,0.1930909306,37.72305623,15.18088825
2022-06-08 22:14:54.999725,9,-1.610351257,4.683760071,7.931406555,-0.2860231698,-0.1996397078,0.141339004,37.72305623,15.18088825
2022-06-08 22:14:55.049464,9,-1.515598297,4.85934494,8.831484833,-0.2692348957,-0.1575899422,0.2232080996,37.72305623,15.18088825
2022-06-08 22:14:55.099203,9,-1.249002686,4.690196686,8.867110748,0.1196465716,-0.04361560941,0.2678611577,37.72305623,15.18088825
2022-06-08 22:14:55.148942,9,-1.420545959,4.722529449,7.739655304,-0.04530724511,-0.2000196874,0.1727534533,37.72305623,15.18088825
2022-06-08 22:14:55.198682,9,-1.163380737,4.426295471,8.446036377,-0.04625187442,-0.1616355628,0.06013020501,37.72305623,15.18088825
2022-06-08 22:14:55.248421,9,-1.163231049,4.54110672,8.76397522,0.03844348714,0.0384757705,0.07054777443,37.72305623,15.18088825
2022-06-08 22:14:55.298160,9,-1.617386627,4.572840729,8.207582245,-0.03294708952,0.0177637469,0.1232891977,37.72305623,15.18088825
2022-06-08 22:14:55.347899,9,-1.063238983,4.620292053,8.622818756,-0.07729844749,0.03655912727,-0.02200396545,37.72305623,15.18088825
2022-06-08 22:14:55.397639,9,-1.476379852,4.390819244,8.29589859,-0.2880671918,-0.01081766933,-0.01686482504,37.72305623,15.18088825
2022-06-08 22:14:55.447378,9,-1.288819885,4.142036591,8.687334595,-0.4594934881,0.04540611804,0.05064916983,37.72305623,15.18088825
2022-06-08 22:14:55.497117,9,-0.9238787842,4.188440094,8.673563232,-0.4879781604,-0.07471608371,0.03837726638,37.72305623,15.18088825
2022-06-08 22:14:55.546856,9,-0.807121582,4.385280762,9.235794067,-0.3442971706,-0.1808616817,0.05467262864,37.72305623,15.18088825
2022-06-08 22:14:55.596595,9,-0.6614744568,4.315675507,10.08767258,-0.05619538203,-0.02097732201,0.01609609462,37.72305623,15.18088825
2022-06-08 22:14:55.646335,9,-0.7222480774,4.134103088,9.288933563,0.2623725235,0.1478997767,0.01080805343,37.72305623,15.18088825
2022-06-08 22:14:55.696074,9,-1.224603424,4.177961884,8.565487976,0.1464419067,0.1324940771,0.02801888436,37.72305623,15.18088825
2022-06-08 22:14:55.745813,9,-1.315464478,3.967649231,8.209677887,0.02122111246,0.1136305556,-0.06787496805,37.72305623,15.18088825
2022-06-08 22:14:55.795553,9,-1.546583862,3.928580475,8.456664276,-0.1138427258,-0.02656051517,-0.08277736604,37.72305623,15.18088825
2022-06-08 22:14:55.845293,9,-1.604812775,3.882775726,9.28234726,-0.03677714616,0.08931170404,0.04274562001,37.72305623,15.18088825
2022-06-08 22:14:55.895032,9,-1.55855896,3.577410736,8.788374481,-0.02782101557,0.1219272763,0.09132684767,37.72305623,15.18088825
2022-06-08 22:14:55.944771,9,-0.8749305725,3.804488525,8.454568634,-0.3706960678,0.01125115901,-0.09051213413,37.72305623,15.18088825
2022-06-08 22:14:55.994510,9,-0.9663903809,3.456013184,9.20151535,-0.2004574388,-0.1953257024,-0.02901893109,37.72305623,15.18088825
2022-06-08 22:14:56.044249,9,-0.8834628296,3.87184845,9.594597931,-0.05246131122,-0.1974002719,-0.04586658999,37.72305623,15.18088825
2022-06-08 22:14:56.093989,9,-1.047671356,3.840862885,9.74563385,0.1626970619,-0.08168379217,0.005312173162,37.72305623,15.18088825
2022-06-08 22:14:56.143728,9,-0.6203100586,4.212989044,8.88447464,0.1905672699,-0.1084661037,-0.240778774,37.72305623,15.18088825
2022-06-08 22:14:56.193467,9,-1.333127747,3.960464172,8.836723938,0.1669977754,-0.1160036176,-0.2844860256,37.72305623,15.18088825
2022-06-08 22:14:56.243206,9,-1.066083069,3.720662842,8.954229584,0.09386841208,-0.08063718677,-0.312880218,37.72305623,15.18088825
2022-06-08 22:14:56.292946,9,-1.225351868,3.867956543,8.810977478,0.09180528671,-0.04689112306,-0.3069535196,37.72305623,15.18088825
2022-06-08 22:14:56.342685,9,-1.391356659,3.952830048,8.666527863,0.05280217156,0.02589917183,-0.2289298326,37.72305623,15.18088825
2022-06-08 22:14:56.392424,9,-1.630858612,3.828289032,8.234077148,-0.1233789325,-0.1491463929,-0.2442824095,37.72305623,15.18088825
2022-06-08 22:14:56.442163,9,-1.526525574,3.514541473,9.064101105,0.03238026425,-0.1284887493,-0.04916028306,37.72305623,15.18088825
2022-06-08 22:14:56.491903,9,-1.462159424,3.46933548,8.479117584,-0.07463482022,-0.247781083,0.04075598717,37.72305623,15.18088825
2022-06-08 22:14:56.541642,9,-0.9289682007,3.753444672,9.274713135,-0.03133131564,-0.20913288,-0.0291358605,37.72305623,15.18088825
2022-06-08 22:14:56.591381,9,-1.056353302,3.916755066,9.292376404,-0.05927584693,-0.2307696342,-0.01099485531,37.72305623,15.18088825
2022-06-08 22:14:56.641120,9,-0.9081614685,4.228257294,9.595346375,-0.01017969195,-0.07993441075,-0.02629080415,37.72305623,15.18088825
2022-06-08 22:14:56.690860,9,-0.9511221313,4.199217682,9.123677216,0.05705047771,-0.0951487869,-0.03057077155,37.72305623,15.18088825
2022-06-08 22:14:56.740599,9,-1.059496765,4.143832855,8.889264679,0.1133523807,-0.05188538134,-0.04943785071,37.72305623,15.18088825
2022-06-08 22:14:56.790338,9,-0.9469308472,3.892206116,8.581953735,0.08848002553,-0.01837712526,-0.05643334612,37.72305623,15.18088825
2022-06-08 22:14:56.840077,9,-1.212328949,3.128494263,7.570656738,-0.1433795542,-0.2896204889,0.06160765141,37.72305623,15.18088825
2022-06-08 22:14:56.889817,9,-0.4620890808,3.481310577,9.514813843,-0.3102119267,-0.1557724476,0.02444800548,37.72305623,15.18088825
2022-06-08 22:14:56.939556,9,-0.6277944946,3.448678436,9.670490112,-0.1211469248,-0.05645155162,0.2359700054,37.72305623,15.18088825
2022-06-08 22:14:56.989295,9,0.004790039062,4.315525818,9.349407806,-0.08934721351,-0.04750506952,-0.01615105756,37.72305623,15.18088825
2022-06-08 22:14:57.039034,9,-0.2923420715,3.858825531,9.121581573,-0.1338952482,-0.02899293415,-0.03519535065,37.72305623,15.18088825
2022-06-08 22:14:57.088774,9,-0.4022135925,3.795058136,9.264833679,0.03604533151,-0.08226464689,-0.0510882698,37.72305623,15.18088825
2022-06-08 22:14:57.138513,9,-0.5748046875,3.744014282,9.389075317,0.0788154304,-0.007868977264,-0.04881099984,37.72305623,15.18088825
2022-06-08 22:14:57.188252,9,-0.5462141418,3.739822998,9.239087219,0.119235009,0.03425918519,-0.04627977684,37.72305623,15.18088825
2022-06-08 22:14:57.237991,9,-0.6340814209,3.657943268,8.998537445,0.1561980993,0.04735131562,-0.01817168295,37.72305623,15.18088825
2022-06-08 22:14:57.287731,9,-0.5477110291,3.750301208,8.560697937,0.005304725375,-0.001934417989,-0.0558763966,37.72305623,15.18088825
2022-06-08 22:14:57.337470,9,-0.7520361328,3.53594696,8.858279114,-0.005530105438,-0.0316506438,0.01983633451,37.72305623,15.18088825
2022-06-08 22:14:57.387209,9,-0.3632945251,3.966152344,8.978329468,-0.2118206918,-0.08270527422,-0.1112966239,37.72305623,15.18088825
2022-06-08 22:14:57.436948,9,-1.353036346,2.966231689,9.378148041,-0.2511710525,-0.05905942619,0.3005497158,37.72305623,15.18088825
2022-06-08 22:14:57.486687,9,-0.04894821167,3.662583618,9.418414307,-0.03226949275,0.04406398162,0.1988051832,37.72305623,15.18088825
2022-06-08 22:14:57.536427,9,0.002694396973,4.158951416,9.292077026,-0.1049273014,0.08889181167,0.02231287956,37.72305623,15.18088825
2022-06-08 22:14:57.586166,9,-0.5794450378,3.678899689,9.312434692,-0.1083057821,0.1165138856,0.04978448153,37.72305623,15.18088825
2022-06-08 22:14:57.635905,9,-0.2124082947,3.626957703,9.634265442,0.1298210174,0.2959411144,-0.006887083407,37.72305623,15.18088825
2022-06-08 22:14:57.685645,9,-0.3620970154,3.691323853,8.598868561,-0.04184118658,0.1995216161,-0.05559582263,37.72305623,15.18088825
2022-06-08 22:14:57.735384,9,-0.9611512756,2.984643402,8.819060669,-0.06767553091,0.08601163328,0.1006599143,37.72305623,15.18088825
2022-06-08 22:14:57.785123,9,-0.7033872986,3.376678162,9.017996979,0.1306181252,0.1789546609,0.1466204971,37.72305623,15.18088825
2022-06-08 22:14:57.834862,9,-0.8716374207,3.058889008,8.082592163,-0.1669600457,-0.08871413022,0.1524839401,37.72305623,15.18088825
2022-06-08 22:14:57.884602,9,-0.8153544617,2.992127838,9.060658264,-0.3337701261,0.02461376041,0.1123775467,37.72305623,15.18088825
2022-06-08 22:14:57.934341,9,-1.011446686,2.768343201,9.272617493,-0.3835812807,-0.07724227011,0.2425877452,37.72305623,15.18088825
2022-06-08 22:14:57.984080,9,-0.7075785828,3.150648193,10.00624191,-0.2931543887,-0.01413782127,0.3501992226,37.72305623,15.18088825
2022-06-08 22:14:58.033819,9,-0.1155596924,3.689976654,10.21730301,0.006093486212,0.131989181,0.3080694973,37.72305623,15.18088825
2022-06-08 22:14:58.083559,9,0.3225791931,4.029021606,9.267228699,0.1471297741,0.06376235932,-0.01671455428,37.72305623,15.18088825
2022-06-08 22:14:58.133298,9,-0.1387614441,3.590134277,9.297615509,0.09145606309,0.1227728426,-0.1962878853,37.72305623,15.18088825
2022-06-08 22:14:58.183037,9,-0.9880952454,3.182831268,9.335486755,0.1549080014,0.06497816741,-0.1017137766,37.72305623,15.18088825
2022-06-08 22:14:58.232776,9,-1.41934845,3.033142548,9.211544495,0.2608951628,0.0973514244,0.07442596555,37.72305623,15.18088825
2022-06-08 22:14:58.282516,9,-1.204395447,3.050656128,8.653205566,0.08760856837,0.0307127852,0.05737432092,37.72305623,15.18088825
2022-06-08 22:14:58.332255,9,-1.352437592,2.876268768,8.987610168,-0.06157374009,0.0813338235,0.1215511188,37.72305623,15.18088825
2022-06-08 22:14:58.381994,9,-1.081501007,2.788251801,8.920549622,-0.1166106313,0.05082409084,0.1333582252,37.72305623,15.18088825
2022-06-08 22:14:58.431733,9,-0.8949888611,2.712359619,8.989705811,-0.2772407532,-0.05155457184,0.2120928764,37.72305623,15.18088825
2022-06-08 22:14:58.481473,9,-0.7378157043,2.983146515,9.843530273,-0.04942089692,0.05187603086,0.3593529761,37.72305623,15.18088825
2022-06-08 22:14:58.531212,9,-0.07933502197,3.401077423,9.104966125,-0.01906566881,-0.1285867691,0.182057485,37.72305623,15.18088825
2022-06-08 22:14:58.580951,9,-0.2650987244,3.523223419,9.727671204,-0.0489516072,-0.02702441067,0.06887397915,37.72305623,15.18088825
2022-06-08 22:14:58.630691,9,-0.5201683044,3.409160614,9.618697815,0.03517182544,-0.0585837625,0.01570333354,37.72305623,15.18088825
2022-06-08 22:14:58.680430,9,-0.8051756287,3.339106293,9.397757263,0.09592325985,0.06100407615,0.04069836438,37.72305623,15.18088825
2022-06-08 22:14:58.730169,9,-0.889151001,3.388503571,8.870254211,0.06676082313,0.001535011921,0.0562020801,37.72305623,15.18088825
2022-06-08 22:14:58.779908,9,-0.6370751953,3.542383575,9.083261261,0.0766518563,0.03527968377,-0.06609825045,37.72305623,15.18088825
2022-06-08 22:14:58.829648,9,-0.9157955933,2.990032196,8.915310516,-0.05428039283,0.0317983143,-0.05413779989,37.72305623,15.18088825
2022-06-08 22:14:58.879387,9,-0.825383606,2.698887634,8.967851257,-0.1666796356,-0.006397538353,-0.05682732537,37.72305623,15.18088825
2022-06-08 22:14:58.929126,9,-0.9029223633,2.756517792,9.879455566,-0.1858120412,-0.03686507791,0.09785634279,37.72305623,15.18088825
2022-06-08 22:14:58.978865,9,-0.3793112183,3.028651886,10.22583527,0.03880828246,-0.06716842204,0.202180326,37.72305623,15.18088825
2022-06-08 22:14:59.028605,9,0.3056643677,3.575614471,9.76314743,0.2059424222,0.0490292944,-0.0407891795,37.72305623,15.18088825
2022-06-08 22:14:59.078344,9,-0.03412902832,3.71153183,8.749006348,0.01929020137,-0.06279254705,-0.2120945752,37.72305623,15.18088825
2022-06-08 22:14:59.128083,9,-0.8696914673,3.345093842,9.421108704,0.08808983862,-0.03231125325,-0.1326335073,37.72305623,15.18088825
2022-06-08 22:14:59.177823,9,-0.6670129395,3.277584229,9.38638092,0.2262586057,0.003693266772,-0.06887485087,37.72305623,15.18088825
2022-06-08 22:14:59.227562,9,-0.4746629333,3.458857269,9.025481415,0.1473680139,-0.0234195441,-0.1671449095,37.72305623,15.18088825
2022-06-08 22:14:59.277301,9,-0.8056246948,3.277284851,9.011710052,0.1268303096,0.06687258184,-0.1027309969,37.72305623,15.18088825
2022-06-08 22:16:41.878809,1,-2.333347778,7.978708191,3.79460907,-0.4924168289,-0.3330974281,-0.1433115602,37.7230574,15.18094571
2022-06-08 22:16:41.928549,1,-2.757415924,7.885601807,3.749103699,-0.9387296438,-0.3799551427,0.05535504594,37.7230574,15.18094571
2022-06-08 22:16:41.978288,1,-1.824555817,7.777825928,6.243067474,-0.3195124567,-0.3545423448,-0.05391774699,37.7230574,15.18094571
2022-06-08 22:16:42.028028,1,-2.785258026,7.637567596,5.939199371,-0.008298667148,-0.3466780484,0.1330686361,37.7230574,15.18094571
2022-06-08 22:16:42.077768,1,-2.329455872,7.767198029,5.419929199,-0.226560697,-0.1742266566,0.1126054302,37.7230574,15.18094571
2022-06-08 22:16:42.127507,1,-2.245480499,7.721842346,5.38594986,-0.3182562888,-0.2194759995,0.1494818777,37.7230574,15.18094571
2022-06-08 22:16:42.177247,1,-1.805994415,7.646249542,5.953868866,-0.2223353535,-0.1600419134,0.1250861287,37.7230574,15.18094571
2022-06-08 22:16:42.226987,1,-1.822759552,7.736511841,6.204298096,-0.0005981485592,-0.02319597267,0.1274032146,37.7230574,15.18094571
2022-06-08 22:16:42.276726,1,-1.635948029,7.868986359,5.72050415,0.05715194717,-0.04843732342,0.08245293051,37.7230574,15.18094571
2022-06-08 22:16:42.326466,1,-1.755848694,7.743996277,5.683980103,0.02026503533,-0.02314555086,0.05710789561,37.7230574,15.18094571
2022-06-08 22:16:42.376205,1,-1.689686279,7.705825653,5.869444427,0.1125781983,-0.07455883175,0.03561785445,37.7230574,15.18094571
2022-06-08 22:16:42.425945,1,-1.668729858,7.710466003,5.88082077,0.1064846292,0.0250855051,0.01548517775,37.7230574,15.18094571
2022-06-08 22:16:42.475685,1,-1.756597137,7.835456085,5.492079163,0.05681106448,-0.02825053036,0.01086958311,37.7230574,15.18094571
2022-06-08 22:16:42.525424,1,-1.787283325,7.788453827,5.446873169,-0.02005602233,-0.01883495785,0.008911869489,37.7230574,15.18094571
2022-06-08 22:16:42.575164,1,-1.612895966,7.733518066,5.642067261,-0.03278217837,-0.03549278155,0.003463474568,37.7230574,15.18094571
2022-06-08 22:16:42.624904,1,-1.810185699,7.6640625,5.699996796,-0.02756103687,-0.03268969804,0.05034263805,37.7230574,15.18094571
2022-06-08 22:16:42.674643,1,-1.683399353,7.768545227,5.826483765,-0.03989519924,-0.01316283271,0.04250045121,37.7230574,15.18094571
2022-06-08 22:16:42.724383,1,-1.623224487,7.85476593,5.842799835,0.01118153799,0.01545441337,0.03991832584,37.7230574,15.18094571
2022-06-08 22:16:42.774123,1,-1.524280243,7.861352234,5.583538971,-0.003710337449,-0.02671711519,-0.0006744454149,37.7230574,15.18094571
2022-06-08 22:16:42.823862,1,-1.692380676,7.80566803,5.564678192,-0.07454879582,-0.004910406191,0.0235580653,37.7230574,15.18094571
2022-06-08 22:16:42.873602,1,-1.698068848,7.751480713,5.864205322,0.00987975765,-0.03570409864,0.04118555784,37.7230574,15.18094571
2022-06-08 22:16:42.923341,1,-1.508862305,7.836653595,5.794899445,-0.0416787751,-0.01039314922,-0.01525747776,37.7230574,15.18094571
2022-06-08 22:16:42.973081,1,-1.766626282,7.708669739,5.815556488,-0.04522235692,-0.01001613121,0.03849295527,37.7230574,15.18094571
2022-06-08 22:16:43.022821,1,-1.617536316,7.713459778,5.870043182,-0.02466193587,0.02598971874,0.02939012274,37.7230574,15.18094571
2022-06-08 22:16:43.072560,1,-1.561253357,7.797734528,5.767955475,-0.01420525741,0.001152668148,0.03101944178,37.7230574,15.18094571
2022-06-08 22:16:43.122300,1,-1.488205261,7.891140289,5.771398315,-0.01523804665,0.005891889334,-0.01140534226,37.7230574,15.18094571
2022-06-08 22:16:43.172040,1,-1.61349472,7.809709625,5.854475555,0.01108939666,-0.01441956125,-0.006436365657,37.7230574,15.18094571
2022-06-08 22:16:43.221779,1,-1.614841919,7.804171143,5.809269562,0.02830648981,-0.0180732049,-0.01710591093,37.7230574,15.18094571
2022-06-08 22:16:43.271519,1,-1.660946045,7.647746429,5.799539795,-0.01529318467,0.01717825979,-0.006692151539,37.7230574,15.18094571
2022-06-08 22:16:43.321259,1,-1.696122894,7.640112305,5.73457489,-0.02845215425,0.004348534159,0.03059249185,37.7230574,15.18094571
2022-06-08 22:16:43.370998,1,-1.545086975,7.851622467,5.745053101,-0.03023116663,0.01388300397,-0.004815151915,37.7230574,15.18094571
2022-06-08 22:16:43.420738,1,-1.572180634,7.829618225,5.803132324,-0.006092158146,-0.003388704732,-0.01975318603,37.7230574,15.18094571
2022-06-08 22:16:43.470478,1,-1.593735809,7.629484406,5.746100922,-0.01819787733,-0.01719445176,0.02190152928,37.7230574,15.18094571
2022-06-08 22:16:43.520217,1,-1.540296936,7.676786041,5.840105438,-0.03964887932,0.03577306867,-0.008984720334,37.7230574,15.18094571
2022-06-08 22:16:43.569957,1,-1.724563751,7.649842072,5.880671082,-0.02538443543,0.02107845992,0.03707903251,37.7230574,15.18094571
2022-06-08 22:16:43.619696,1,-1.576222229,7.720495148,5.82004715,0.002347300062,-0.03483512253,0.04100223258,37.7230574,15.18094571
2022-06-08 22:16:43.669436,1,-1.41695343,7.802823944,5.806724854,-0.03573375568,0.0007150601596,-0.0117138559,37.7230574,15.18094571
2022-06-08 22:16:43.719176,1,-1.596130829,7.767946472,5.835914154,-0.008643295616,-0.02947520837,0.02425523475,37.7230574,15.18094571
2022-06-08 22:16:43.768915,1,-1.365310822,7.80447052,5.902375946,-0.005326027051,-0.009380274452,-0.01198644377,37.7230574,15.18094571
2022-06-08 22:16:43.818655,1,-1.600771179,7.758366394,5.873935089,-0.01460873801,-0.003497849684,-0.01168335136,37.7230574,15.18094571
2022-06-08 22:16:43.868395,1,-1.612596588,7.645800476,5.854625244,-0.0117391739,0.01597978175,-0.001721483073,37.7230574,15.18094571
2022-06-08 22:16:43.918134,1,-1.623673553,7.576494598,5.8844133,-0.01704395935,0.012067548,0.01753135584,37.7230574,15.18094571
2022-06-08 22:16:43.967874,1,-1.524729309,7.605683899,5.922583923,-0.03025909699,0.02375270054,0.01678966545,37.7230574,15.18094571
2022-06-08 22:16:44.017613,1,-1.494043121,7.737559662,5.872138824,-0.03075977229,0.00593615137,0.0240055006,37.7230574,15.18094571
2022-06-08 22:16:44.067353,1,-1.544787598,7.68980896,5.922284546,0.002946009394,-0.02546557039,0.05269290134,37.7230574,15.18094571
2022-06-08 22:16:44.117093,1,-1.362317047,7.721243591,5.97796875,-0.02052204683,0.0509971045,-0.007833121344,37.7230574,15.18094571
2022-06-08 22:16:44.166832,1,-1.636696472,7.73890686,5.772146759,-0.02309653349,-0.0513895303,0.04856512696,37.7230574,15.18094571
2022-06-08 22:16:44.216572,1,-1.313368835,7.725434875,6.056854706,-0.02013323084,0.04362730309,-0.008571639657,37.7230574,15.18094571
2022-06-08 22:16:44.266312,1,-1.471140747,7.698939972,5.831273804,-0.02009036206,-0.005089442246,-0.009703531861,37.7230574,15.18094571
2022-06-08 22:16:44.316051,1,-1.646875305,7.62783783,5.859115906,-0.02776320279,-0.03490546718,0.02822489478,37.7230574,15.18094571
2022-06-08 22:16:44.365791,1,-1.536105652,7.634274445,5.954467621,-0.02401533164,-0.01741511934,0.04135776311,37.7230574,15.18094571
2022-06-08 22:16:44.415531,1,-1.493743744,7.651039581,5.964197388,-0.02079022303,-0.03742619976,0.02612673305,37.7230574,15.18094571
2022-06-08 22:16:44.465270,1,-1.39240448,7.621251526,6.08679245,-0.02142298408,0.01708877832,-0.006086815149,37.7230574,15.18094571
2022-06-08 22:16:44.515010,1,-1.503473511,7.57634491,6.064039764,-0.00252360641,0.004625343718,0.02753339149,37.7230574,15.18094571
2022-06-08 22:16:44.564749,1,-1.422192535,7.631580048,5.891598358,-0.04408625141,0.01176746096,0.02618622035,37.7230574,15.18094571
2022-06-08 22:16:44.614489,1,-1.334025879,7.724686432,6.028114471,-0.01561520062,0.01096821111,0.02793296427,37.7230574,15.18094571
2022-06-08 22:16:44.664229,1,-1.305435333,7.721542969,5.942043457,-0.04501193017,-0.01449734252,0.01508320775,37.7230574,15.18094571
2022-06-08 22:16:44.713968,1,-1.335223389,7.679779816,6.176156616,0.00660567591,0.02085006237,-0.009931374341,37.7230574,15.18094571
2022-06-08 22:16:44.763708,1,-1.466051331,7.711513824,6.051914978,-0.005047773477,0.03464880586,-0.01511221752,37.7230574,15.18094571
2022-06-08 22:16:44.813448,1,-1.526375885,7.687114563,5.937403107,-0.001318023889,0.00645331759,0.002634508535,37.7230574,15.18094571
2022-06-08 22:16:44.863187,1,-1.466650085,7.575446777,5.985303497,-0.008069901727,0.002083924599,0.008234552108,37.7230574,15.18094571
2022-06-08 22:16:44.912927,1,-1.51874176,7.477849731,5.97916626,-0.0004162392579,-0.0226829052,0.03970195353,37.7230574,15.18094571
2022-06-08 22:16:44.962667,1,-1.316961365,7.568261719,6.10430603,-0.008151146583,0.01527065411,0.03035704419,37.7230574,15.18094571
2022-06-08 22:16:45.012406,1,-1.386416931,7.680378571,6.002817078,-0.001502603176,0.01166197751,0.01788868755,37.7230574,15.18094571
2022-06-08 22:16:45.062146,1,-1.239572296,7.633376312,5.871091003,-0.03247486427,-0.02596812695,-0.01896389946,37.7230574,15.18094571
2022-06-08 22:16:45.111885,1,-1.399589539,7.536677399,6.112987976,-0.01199727319,-0.001055480447,-0.004093801603,37.7230574,15.18094571
2022-06-08 22:16:45.161625,1,-1.495839386,7.526348877,5.941295013,-0.006969475187,-0.05650741234,0.04410977662,37.7230574,15.18094571
2022-06-08 22:16:45.211365,1,-1.248553619,7.71435791,6.120023346,-0.01181617472,0.02670348436,-0.02347253449,37.7230574,15.18094571
2022-06-08 22:16:45.261104,1,-1.61349472,7.599097595,5.868396606,-0.02463770844,-0.0635849759,0.02532422729,37.7230574,15.18094571
2022-06-08 22:16:45.310844,1,-1.339264984,7.649093628,6.211483154,-0.02901887894,0.0342920199,-0.007121354342,37.7230574,15.18094571
2022-06-08 22:16:45.360584,1,-1.490450592,7.51078125,6.050867157,-0.006595301442,0.004060327075,0.0171657782,37.7230574,15.18094571
2022-06-08 22:16:45.410323,1,-1.302142181,7.464677124,6.035598907,-0.04078546166,0.01323337015,0.006632393226,37.7230574,15.18094571
2022-06-08 22:16:45.460063,1,-1.351838837,7.570357361,6.150559845,-0.02155934833,0.01403189544,0.04500319809,37.7230574,15.18094571
2022-06-08 22:16:45.509802,1,-1.279239807,7.732470245,6.086193695,-0.04651503637,0.001819934696,0.01266094483,37.7230574,15.18094571
2022-06-08 22:16:45.559542,1,-1.30348938,7.682174835,6.270909576,-0.01179487258,0.02715858072,0.008898429573,37.7230574,15.18094571
2022-06-08 22:16:45.609282,1,-1.353485413,7.554789734,6.150709534,0.02030447498,0.02602753416,0.03781662881,37.7230574,15.18094571
2022-06-08 22:16:45.659021,1,-1.194066925,7.595505066,5.994733887,-0.03296274319,0.02785978839,-0.02376204543,37.7230574,15.18094571
2022-06-08 22:16:45.708761,1,-1.436562653,7.4862323,6.150559845,-0.02435429953,-0.0132710468,-0.006650194991,37.7230574,15.18094571
2022-06-08 22:16:45.758501,1,-1.403032379,7.399412842,6.301895142,0.005506396294,0.03307837993,0.03362534568,37.7230574,15.18094571
2022-06-08 22:16:45.808240,1,-1.247505798,7.533683624,6.087241516,0.0293269977,0.02865314484,0.01639123261,37.7230574,15.18094571
2022-06-08 22:16:45.857980,1,-1.358574829,7.615263977,5.829627228,-0.04159832746,-0.02095959336,0.0003745974973,37.7230574,15.18094571
2022-06-08 22:16:45.907719,1,-1.36201767,7.553292847,6.183790741,0.002858673688,-0.0179358758,-0.00141444488,37.7230574,15.18094571
2022-06-08 22:16:45.957459,1,-1.343755646,7.478448486,6.154302063,-0.03418163955,0.02350154519,-0.02334426716,37.7230574,15.18094571
2022-06-08 22:16:46.007199,1,-1.562899933,7.436984711,6.137536926,-0.03422825783,-0.008829336613,0.03448353708,37.7230574,15.18094571
2022-06-08 22:16:46.056938,1,-1.359472961,7.519762573,6.222410431,-0.05581481755,0.03194832802,0.02644585446,37.7230574,15.18094571
2022-06-08 22:16:46.106678,1,-1.344204712,7.624394989,6.217171326,-0.009905911051,-0.007912766188,0.04292179272,37.7230574,15.18094571
2022-06-08 22:16:46.156418,1,-1.214125214,7.661368103,6.183191986,-0.01121241227,0.007396575063,0.003855636343,37.7230574,15.18094571
2022-06-08 22:16:46.206157,1,-1.30109436,7.523205414,6.13364502,-0.01137619186,-0.02735657617,0.02303414792,37.7230574,15.18094571
2022-06-08 22:16:46.255897,1,-1.262175293,7.584727478,6.272705841,-0.00366822863,0.01171045285,-0.008311934769,37.7230574,15.18094571
2022-06-08 22:16:46.305636,1,-1.338516541,7.632328491,6.200106812,0.009036114439,0.008926118724,-0.02352257818,37.7230574,15.18094571
2022-06-08 22:16:46.355376,1,-1.320104828,7.544012146,6.086193695,-0.01378449798,-0.005917667411,-0.02958383597,37.7230574,15.18094571
2022-06-08 22:16:46.405116,1,-1.409468994,7.479795685,6.181695099,-0.0212264657,-0.0103899315,-0.01811565831,37.7230574,15.18094571
2022-06-08 22:16:46.454855,1,-1.43446701,7.34702179,6.293362885,0.01941843517,-0.01429195981,0.0307962466,37.7230574,15.18094571
2022-06-08 22:16:46.504595,1,-1.26367218,7.379354553,6.193071442,-0.01104592811,0.0168098323,0.02225403674,37.7230574,15.18094571
2022-06-08 22:16:46.554335,1,-1.260379028,7.436236267,6.008205872,-0.02808990516,-0.01920925826,0.005694427993,37.7230574,15.18094571
2022-06-08 22:16:46.604074,1,-1.347647552,7.574398956,6.082451477,-0.05689891428,-0.04860199988,0.00576129742,37.7230574,15.18094571
2022-06-08 22:16:46.653814,1,-1.290017395,7.494315491,6.403982849,0.009086459875,0.001117036678,0.001978059532,37.7230574,15.18094571
2022-06-08 22:16:46.703553,1,-1.280886383,7.546107788,6.163433075,-0.02670429833,-0.007379814051,-0.03324732929,37.7230574,15.18094571
2022-06-08 22:16:46.753293,1,-1.490749969,7.416177979,6.236331482,-0.02967316285,-0.02693382651,0.02447472513,37.7230574,15.18094571
2022-06-08 22:16:46.803033,1,-1.191522217,7.495812378,6.43197464,0.01369933318,0.03372249007,0.007154784165,37.7230574,15.18094571
2022-06-08 22:16:46.852772,1,-1.236877899,7.531737671,6.079457703,-0.01800643466,-0.002999091987,-0.003483162262,37.7230574,15.18094571
2022-06-08 22:38:43.127011,4,-0.09954299927,0.3538641357,9.795629883,0.000915430137,-0.001273304224,-0.001637038426,37.72306116,15.1808987
2022-06-08 22:38:43.176750,4,-0.07649093628,0.3456312561,9.811646576,0.00114446925,0.0009317742661,0.0009350260952,37.72306116,15.1808987
2022-06-08 22:38:43.226489,4,-0.0860710144,0.3429368591,9.810598755,-0.0005195457488,-0.0007361466996,0.0004072675947,37.72306116,15.1808987
2022-06-08 22:38:43.276228,4,-0.07349716187,0.3454815674,9.791588287,-0.0006434475072,0.002321543638,-0.001329920837,37.72306116,15.1808987
2022-06-08 22:38:43.325967,4,-0.0679586792,0.3324586487,9.815388794,0.0005982237635,0.0002174484544,-0.001762298052,37.72306116,15.1808987
2022-06-08 22:38:43.375706,4,-0.07828720093,0.349972229,9.81823288,0.002275828738,-9.235925972e-05,-0.001289583859,37.72306116,15.1808987
2022-06-08 22:38:43.425445,4,-0.09220825195,0.3486250305,9.801018677,-0.002061156556,0.0006014527753,-0.0008824018296,37.72306116,15.1808987
2022-06-08 22:38:43.475184,4,-0.08322692871,0.3525169373,9.816586304,-0.0009512633551,0.001281637698,-0.0005389974685,37.72306116,15.1808987
2022-06-08 22:38:43.524923,4,-0.1149609375,0.3415896606,9.822124786,-0.001821142389,0.0008334168233,-8.234055713e-06,37.72306116,15.1808987
2022-06-08 22:38:43.574662,4,-0.08831634521,0.3463796997,9.81583786,0.001994084101,-0.0009053405374,0.001243933104,37.72306116,15.1808987
2022-06-08 22:38:43.624401,4,-0.06256988525,0.3348536682,9.814041595,0.0001375685679,-0.0004006582312,-0.0003408935154,37.72306116,15.1808987
2022-06-08 22:38:43.674140,4,-0.08592132568,0.3556604004,9.81119751,0.002603439149,-0.0004089465365,0.0007131078746,37.72306116,15.1808987
2022-06-08 22:38:43.723879,4,-0.06601272583,0.3583547974,9.812844086,0.0005425497657,-0.001282242127,0.0002052035416,37.72306116,15.1808987
2022-06-08 22:38:43.773618,4,-0.07858657837,0.3492237854,9.811347198,0.0001266472973,-0.0008893720806,0.001637090696,37.72306116,15.1808987
2022-06-08 22:38:43.823357,4,-0.07544311523,0.3474275208,9.812993774,-0.0005193803227,0.002379984595,-0.0001966938144,37.72306116,15.1808987
2022-06-08 22:38:43.873096,4,-0.07783813477,0.3501219177,9.806706848,-0.001775268582,0.001006754581,-0.0001368594822,37.72306116,15.1808987
2022-06-08 22:38:43.922835,4,-0.07723937988,0.3375480652,9.826914825,0.001426463248,-0.002260695212,0.00235408335,37.72306116,15.1808987
2022-06-08 22:38:43.972574,4,-0.07259902954,0.3570075989,9.80760498,0.001402520225,0.0005473569036,0.0006968970411,37.72306116,15.1808987
2022-06-08 22:38:44.022312,4,-0.07679031372,0.3448828125,9.82047821,-0.0007081996882,0.001656223554,-0.002756499685,37.72306116,15.1808987
2022-06-08 22:38:44.072051,4,-0.0758921814,0.3481759644,9.801467743,0.0007970213774,0.0004615662619,-0.002142730635,37.72306116,15.1808987
2022-06-08 22:38:44.121790,4,-0.08921447754,0.3573069763,9.826316071,0.0008350521675,-0.0001068683341,-0.0002572418889,37.72306116,15.1808987
2022-06-08 22:38:44.171529,4,-0.0853225708,0.3538641357,9.818831635,0.001426732633,0.0009174449369,0.002178895986,37.72306116,15.1808987
2022-06-08 22:38:44.221268,4,-0.08202941895,0.3420387268,9.808054047,-0.001740476117,0.0009473660029,0.002250643913,37.72306116,15.1808987
2022-06-08 22:38:44.271007,4,-0.07619155884,0.3376977539,9.814790039,-0.0007458652835,0.0005375328474,0.001082611503,37.72306116,15.1808987
2022-06-08 22:38:44.320746,4,-0.07768844604,0.3507206726,9.836794281,0.0005398915382,0.0008916193619,-0.0005264761858,37.72306116,15.1808987
2022-06-08 22:38:44.370485,4,-0.09011260986,0.3531156921,9.787247314,0.001162842964,0.0005336888134,0.0007013301365,37.72306116,15.1808987
2022-06-08 22:38:44.420224,4,-0.08502319336,0.3439846802,9.798773346,0.001809103298,-0.0008436087519,0.0004623767454,37.72306116,15.1808987
2022-06-08 22:38:44.469963,4,-0.07783813477,0.3454815674,9.831555176,6.371468771e-05,-0.001293654088,-0.0009901204612,37.72306116,15.1808987
2022-06-08 22:38:44.519702,4,-0.1016386414,0.3544628906,9.826914825,-0.0009938854491,0.002024217974,-0.00188534765,37.72306116,15.1808987
2022-06-08 22:38:44.569441,4,-0.08577163696,0.342487793,9.805958405,0.00164170214,0.001365873497,-0.0014990333,37.72306116,15.1808987
2022-06-08 22:38:44.619180,4,-0.08442443848,0.3507206726,9.802814941,3.01891705e-05,0.0009357822128,0.001276571886,37.72306116,15.1808987
2022-06-08 22:38:44.668919,4,-0.076640625,0.352666626,9.798024902,0.001789081842,-0.0003086524084,-0.0001888227416,37.72306116,15.1808987
2022-06-08 22:38:44.718658,4,-0.0904119873,0.356408844,9.811646576,-0.0006119409809,-0.001646233257,0.0005169390934,37.72306116,15.1808987
2022-06-08 22:38:44.768397,4,-0.07424560547,0.3484753418,9.819280701,-0.001803323859,0.001243102364,-9.48793022e-05,37.72306116,15.1808987
2022-06-08 22:38:44.818136,4,-0.1028361511,0.3423381042,9.821376343,0.003177880775,0.0008951243944,0.0008945168229,37.72306116,15.1808987
2022-06-08 22:38:44.867875,4,-0.09535171509,0.3568579102,9.830806732,-0.0003598534968,-0.000608487986,0.000639522681,37.72306116,15.1808987
2022-06-08 22:38:44.917614,4,-0.09310638428,0.3463796997,9.809401245,0.0006387652829,0.001227590255,-0.0001376862638,37.72306116,15.1808987
2022-06-08 22:38:44.967353,4,-0.08786727905,0.3550616455,9.79712677,0.002022507833,-0.0002544913441,-0.001960506896,37.72306116,15.1808987
2022-06-08 22:38:45.017092,4,-0.08786727905,0.346230011,9.811945953,-0.001052683685,-0.0003551230766,-0.0008316271706,37.72306116,15.1808987
2022-06-08 22:38:45.066831,4,-0.06661148071,0.3529660034,9.807006226,-0.001855291659,0.003629136831,-0.0007261118153,37.72306116,15.1808987
2022-06-08 22:38:45.116570,4,-0.08951385498,0.3442840576,9.801617432,-0.002112033777,-7.617659867e-05,0.001738457358,37.72306116,15.1808987
2022-06-08 22:38:45.166309,4,-0.08652008057,0.349972229,9.790540466,-0.0005300294142,-0.0003223125823,0.0007940040668,37.72306116,15.1808987
2022-06-08 22:38:45.216048,4,-0.09011260986,0.370329895,9.811347198,-0.002199053299,0.0005743415095,0.0003215008182,37.72306116,15.1808987
2022-06-08 22:38:45.265787,4,-0.0940045166,0.3498225403,9.838440857,0.003144545015,8.328352123e-05,-0.0006077792495,37.72306116,15.1808987
2022-06-08 22:38:45.315526,4,-0.06676116943,0.3450325012,9.810598755,0.0009161845082,-0.0006877817214,0.001269502565,37.72306116,15.1808987
2022-06-08 22:38:45.365265,4,-0.07873626709,0.3540138245,9.820029144,0.0008532190695,-0.001244091894,0.001022686833,37.72306116,15.1808987
2022-06-08 22:38:45.415004,4,-0.08053253174,0.3555107117,9.825567627,0.00122474716,0.0008834302425,-0.001918593072,37.72306116,15.1808987
2022-06-08 22:38:45.464743,4,-0.07514373779,0.339793396,9.798773346,0.001503927051,0.0009722425602,-0.003211664967,37.72306116,15.1808987
2022-06-08 22:38:45.514482,4,-0.07035369873,0.342487793,9.815239105,-0.002058789134,-0.0009109159,0.0001481885556,37.72306116,15.1808987
2022-06-08 22:38:45.564221,4,-0.08726852417,0.3658392334,9.816735992,-0.002314749174,0.0003753700294,-0.001168455929,37.72306116,15.1808987
2022-06-08 22:38:45.613959,4,-0.07050338745,0.3582051086,9.818382568,-2.045964357e-05,-0.001719837543,0.001807972556,37.72306116,15.1808987
2022-06-08 22:38:45.663698,4,-0.07244934082,0.3565585327,9.809700623,-0.0008287997916,-0.0004649232142,0.0008780213539,37.72306116,15.1808987
2022-06-08 22:38:45.713437,4,-0.09639953613,0.3511697388,9.803264008,-0.000198312453,0.001385385636,0.00270967395,37.72306116,15.1808987
2022-06-08 22:38:45.763176,4,-0.06945556641,0.3550616455,9.82047821,0.000752813241,-0.0003819703124,-0.001188613242,37.72306116,15.1808987
2022-06-08 22:38:45.812915,4,-0.08996292114,0.3661386108,9.801916809,-0.001543546794,-0.0004971865565,-0.001167109003,37.72306116,15.1808987
2022-06-08 22:38:45.862654,4,-0.07858657837,0.3508703613,9.79712677,-0.0008353964658,0.0005531297065,-0.0002673103008,37.72306116,15.1808987
2022-06-08 22:38:45.912393,4,-0.0802331543,0.3318598938,9.816286926,0.0008785093087,0.0005317437463,0.0002846835414,37.72306116,15.1808987
2022-06-08 22:38:45.962132,4,-0.08861572266,0.3579057312,9.817783813,-0.0004189565079,-0.001559378114,0.0006220908836,37.72306116,15.1808987
2022-06-08 22:38:46.011871,4,-0.09086105347,0.35102005,9.81119751,-0.001217179117,-0.0004322947934,0.0004025645321,37.72306116,15.1808987
2022-06-08 22:38:46.061610,4,-0.08128097534,0.3523672485,9.793833618,0.001739490544,0.001202375162,0.0009928738,37.72306116,15.1808987
2022-06-08 22:38:46.111349,4,-0.08921447754,0.3456312561,9.82047821,-0.001618431881,0.0005960464478,0.0006760591641,37.72306116,15.1808987
2022-06-08 22:38:46.161088,4,-0.09385482788,0.3418890381,9.806108093,0.002154209651,0.0009305058047,0.0002639546292,37.72306116,15.1808987
2022-06-08 22:38:46.210827,4,-0.07394622803,0.3475772095,9.810149689,0.0002854042687,0.000430834014,0.0004196690861,37.72306116,15.1808987
2022-06-08 22:38:46.260566,4,-0.08202941895,0.3471281433,9.816436615,0.0007911197026,0.001900150441,0.000519568217,37.72306116,15.1808987
2022-06-08 22:38:46.310305,4,-0.08008346558,0.349972229,9.807155914,0.0007307360065,0.003427621443,0.001198016107,37.72306116,15.1808987
2022-06-08 22:38:46.360044,4,-0.08247848511,0.3565585327,9.796078949,0.001476191916,4.896242172e-05,-0.000213343068,37.72306116,15.1808987
2022-06-08 22:38:46.409783,4,-0.09190887451,0.3471281433,9.811047821,0.002942331368,0.002343380358,0.0004220004193,37.72306116,15.1808987
2022-06-08 22:38:46.459522,4,-0.07843688965,0.3511697388,9.819879456,-0.002195360372,-0.001176687423,-0.001136363018,37.72306116,15.1808987
2022-06-08 22:38:46.509261,4,-0.06331832886,0.3555107117,9.794582062,-0.002223415533,0.002714003902,-9.048101492e-05,37.72306116,15.1808987
2022-06-08 22:38:46.559000,4,-0.07409591675,0.3595523071,9.804461517,0.002897702623,-0.00122857932,0.0005068782484,37.72306116,15.1808987
2022-06-08 22:38:46.608739,4,-0.09131011963,0.3357518005,9.82526825,0.001235382166,-0.0004736143164,-0.001755080884,37.72306116,15.1808987
2022-06-08 22:38:46.658478,4,-0.08202941895,0.3534150696,9.803114319,-0.001949461759,0.000690295361,-0.0007921126671,37.72306116,15.1808987
2022-06-08 22:38:46.708217,4,-0.08247848511,0.3553610229,9.805659027,0.001277463045,0.0002168710344,-0.001179238316,37.72306116,15.1808987
2022-06-08 22:38:46.757956,4,-0.09550140381,0.3576063538,9.826465759,0.00104068988,-0.0002024946734,-0.0001488071866,37.72306116,15.1808987
2022-06-08 22:38:46.807695,4,-0.0940045166,0.3546125793,9.80296463,-8.361821529e-05,0.001667787787,0.001369758276,37.72306116,15.1808987
2022-06-08 22:38:46.857434,4,-0.0802331543,0.3496728516,9.800868988,0.0004799133167,0.0007381606847,-0.0007862489438,37.72306116,15.1808987
2022-06-08 22:38:46.907173,4,-0.06616241455,0.3294648743,9.81464035,0.0005318351323,-0.0003550187685,-0.0002493294887,37.72306116,15.1808987
2022-06-08 22:38:46.956912,4,-0.09774673462,0.3442840576,9.811646576,0.00241478649,0.001443026122,0.0002457627561,37.72306116,15.1808987
2022-06-08 22:38:47.006651,4,-0.07544311523,0.3483256531,9.799970856,0.001784337219,0.0001136353239,-0.0002445932478,37.72306116,15.1808987
2022-06-08 22:38:47.056390,4,-0.08846603394,0.3640429688,9.816137238,-0.001453575678,0.000558196567,-0.0009608708788,37.72306116,15.1808987
2022-06-08 22:38:47.106129,4,-0.08637039185,0.3607498169,9.813742218,0.0003254170297,0.0006714845076,-0.000343607855,37.72306116,15.1808987
2022-06-08 22:38:47.155868,4,-0.09250762939,0.3547622681,9.809251556,-0.0001226178138,0.001303124242,-9.102805052e-05,37.72306116,15.1808987
2022-06-08 22:38:47.205607,4,-0.07214996338,0.3414399719,9.837542725,-0.00126652047,-0.001856992021,6.555579603e-06,37.72306116,15.1808987
2022-06-08 22:38:47.255346,4,-0.08442443848,0.3391946411,9.811796265,0.0008620179724,-0.001572038513,-0.001778642763,37.72306116,15.1808987
2022-06-08 22:38:47.305085,4,-0.08472381592,0.3484753418,9.806557159,-0.000777537236,-0.0002638669685,0.00147280714,37.72306116,15.1808987
2022-06-08 22:38:47.354824,4,-0.09011260986,0.3577560425,9.804311829,0.002575395163,0.000854250975,-0.0003804723965,37.72306116,15.1808987
2022-06-08 22:38:47.404563,4,-0.07214996338,0.3423381042,9.81464035,0.0009515582933,-0.0002483329736,-0.001071452163,37.72306116,15.1808987
2022-06-08 22:38:47.454302,4,-0.07514373779,0.3507206726,9.80880249,-0.002206819365,0.0006150710396,-0.00179459143,37.72306116,15.1808987
2022-06-08 22:38:47.504041,4,-0.07544311523,0.3552113342,9.815388794,0.001411156612,0.001030490268,-0.0005715438165,37.72306116,15.1808987
2022-06-08 22:38:47.553780,4,-0.08232879639,0.3393443298,9.825717316,0.0006420508726,-0.0001596584916,0.0001723447349,37.72306116,15.1808987
2022-06-08 22:38:47.603519,4,-0.06107299805,0.3373983765,9.815987549,-0.000768407248,-0.0006909808144,0.001009423868,37.72306116,15.1808987
2022-06-08 22:38:47.653258,4,-0.07649093628,0.3550616455,9.821825409,0.001331759733,-0.0007139248773,-0.000676143798,37.72306116,15.1808987
2022-06-08 22:38:47.702997,4,-0.07559280396,0.3677851868,9.835596771,-0.001448723953,9.122723714e-05,-0.0001838614698,37.72306116,15.1808987
2022-06-08 22:38:47.752736,4,-0.08637039185,0.3414399719,9.812844086,0.0001758707222,0.0007605031133,0.0004265229218,37.72306116,15.1808987
2022-06-08 22:38:47.802475,4,-0.09355545044,0.3597019958,9.807305603,-0.002080725739,0.001259451732,-7.355818525e-06,37.72306116,15.1808987
2022-06-08 22:38:47.852214,4,-0.08502319336,0.346230011,9.800719299,0.001957361354,0.001778374426,0.0009004885796,37.72306116,15.1808987
2022-06-08 22:38:47.901953,4,-0.08038284302,0.3492237854,9.78545105,0.001264202176,0.001196133438,8.230889216e-05,37.72306116,15.1808987
2022-06-08 22:38:47.951692,4,-0.08158035278,0.3483256531,9.82871109,-6.299943198e-05,0.0002849027514,-0.0001458241604,37.72306116,15.1808987
2022-06-08 22:38:48.001431,4,-0.09190887451,0.3451821899,9.798623657,0.0006410202477,0.001389156096,-0.001590645523,37.72306116,15.1808987
2022-06-08 22:38:48.051170,4,-0.07409591675,0.3402424622,9.815987549,-0.001207513036,0.0008667996153,0.0004295260878,37.72306116,15.1808987
2022-06-08 22:38:48.100909,4,-0.09475296021,0.3552113342,9.799372101,-0.001526122214,-0.001183690038,0.0009363294812,37.72306116,15.1808987
2022-06-08 22:39:16.109867,7,-0.09340576172,0.3559597778,9.75147171,0.001560820267,0.01412632316,0.0006890954683,37.72306605,15.18092706
2022-06-08 22:39:16.159606,7,-0.08517288208,0.3550616455,9.830207977,-0.0004128563451,0.002090077382,-0.00139352656,37.72306605,15.18092706
2022-06-08 22:39:16.209346,7,-0.08696914673,0.3528163147,9.832004242,0.0004058073973,-0.0002132002264,-0.002209502272,37.72306605,15.18092706
2022-06-08 22:39:16.259085,7,-0.06765930176,0.3402424622,9.827214203,0.0006632245495,0.0001874174923,-0.001262486912,37.72306605,15.18092706
2022-06-08 22:39:16.308825,7,-0.09430389404,0.3480262756,9.81239502,-0.001213449985,-0.0008580456488,-0.0002325222595,37.72306605,15.18092706
2022-06-08 22:39:16.358564,7,-0.09729766846,0.3493734741,9.822573853,0.0005191476084,-0.0008954238147,-0.001090501202,37.72306605,15.18092706
2022-06-08 22:39:16.408304,7,-0.07035369873,0.3414399719,9.820029144,0.002544051502,-0.001741678454,-0.0003107588273,37.72306605,15.18092706
2022-06-08 22:39:16.458043,7,-0.0896635437,0.3490740967,9.820927277,0.0005317748291,-0.002378616948,0.0005891234614,37.72306605,15.18092706
2022-06-08 22:39:16.507783,7,-0.07319778442,0.3405418396,9.831854553,0.0005242704647,0.001361788716,-0.00120037247,37.72306605,15.18092706
2022-06-08 22:39:16.557522,7,-0.0817300415,0.338745575,9.817185059,0.002319193911,0.0009492603131,-0.002516858978,37.72306605,15.18092706
2022-06-08 22:39:16.607262,7,-0.08352630615,0.3558100891,9.814340973,0.00222178502,0.000836792402,-0.0003483364126,37.72306605,15.18092706
2022-06-08 22:39:16.657001,7,-0.09849517822,0.3598516846,9.823172607,-0.002122887876,-6.885966286e-05,4.794099368e-05,37.72306605,15.18092706
2022-06-08 22:39:16.706741,7,-0.09265731812,0.3549119568,9.824519806,-0.002486244775,0.0002337610349,-0.0006304885028,37.72306605,15.18092706
2022-06-08 22:39:16.756480,7,-0.08547225952,0.3481759644,9.81239502,-0.0008426357526,-0.0005007903092,-0.0006911349483,37.72306605,15.18092706
2022-06-08 22:39:16.806220,7,-0.06316864014,0.3511697388,9.81703537,0.0005742119974,-0.001800168306,-0.002235538559,37.72306605,15.18092706
2022-06-08 22:39:16.855959,7,-0.08038284302,0.3466790771,9.817334747,-0.0001536236377,0.001381701324,-0.001454800367,37.72306605,15.18092706
2022-06-08 22:39:16.905699,7,-0.08382568359,0.3577560425,9.821226654,-0.002816867549,0.002534552477,-0.002281874418,37.72306605,15.18092706
2022-06-08 22:39:16.955438,7,-0.08427474976,0.3381468201,9.835596771,-0.00103097281,0.0008760760538,0.000164902187,37.72306605,15.18092706
2022-06-08 22:39:17.005178,7,-0.0773890686,0.3531156921,9.810449066,-0.0009753245395,-0.0001323791221,0.0004872685531,37.72306605,15.18092706
2022-06-08 22:39:17.054917,7,-0.09744735718,0.3429368591,9.82751358,-0.000961430138,-7.458869368e-05,-0.001204323024,37.72306605,15.18092706
2022-06-08 22:39:17.104657,7,-0.1082249451,0.3490740967,9.816286926,-0.002987721702,0.000999095384,-0.001977525186,37.72306605,15.18092706
2022-06-08 22:39:17.154396,7,-0.08936416626,0.3384461975,9.806108093,-0.0008254395798,0.0001384858042,0.001222967519,37.72306605,15.18092706
2022-06-08 22:39:17.204136,7,-0.08951385498,0.3620970154,9.827064514,0.001745451242,0.0008184644394,0.001400678186,37.72306605,15.18092706
2022-06-08 22:39:17.253875,7,-0.08876541138,0.3394940186,9.81703537,-0.0005358398193,0.0009286911227,-0.0004982538521,37.72306605,15.18092706
2022-06-08 22:39:17.303615,7,-0.08412506104,0.3366499329,9.787696381,0.00140783703,0.001785666216,8.761952631e-05,37.72306605,15.18092706
2022-06-08 22:39:17.353354,7,-0.1037342834,0.3436853027,9.81583786,1.14768045e-05,0.001116824802,-0.00117164175,37.72306605,15.18092706
2022-06-08 22:39:17.403094,7,-0.06975494385,0.3562591553,9.805659027,7.740571164e-05,0.001512443181,0.001617944334,37.72306605,15.18092706
2022-06-08 22:39:17.452833,7,-0.1004411316,0.3504212952,9.808054047,0.003269388573,-0.0008283336647,0.0003564105136,37.72306605,15.18092706
2022-06-08 22:39:17.502573,7,-0.09340576172,0.3436853027,9.810149689,0.0007479892811,0.0005659549497,0.0008888783632,37.72306605,15.18092706
2022-06-08 22:39:17.552312,7,-0.07274871826,0.3534150696,9.81,-0.0003098214511,-0.0003355676308,0.0007386830403,37.72306605,15.18092706
2022-06-08 22:39:17.602052,7,-0.07843688965,0.3480262756,9.808054047,-4.395237193e-05,0.001388995443,-0.001204589149,37.72306605,15.18092706
2022-06-08 22:39:17.651792,7,-0.09385482788,0.339793396,9.825417938,-0.001414950704,-0.0001305406913,0.0007237209938,37.72306605,15.18092706
2022-06-08 22:39:17.701530,7,-0.08861572266,0.3529660034,9.825717316,0.001300005824,-0.003738139058,0.001589642721,37.72306605,15.18092706
2022-06-08 22:39:17.751271,7,-0.08247848511,0.3559597778,9.79712677,0.001367347781,-0.0004672016948,-0.0004098386271,37.72306605,15.18092706
2022-06-08 22:39:17.801010,7,-0.093256073,0.3561094666,9.814939728,-0.0003525033826,-0.00132744154,0.0005116018001,37.72306605,15.18092706
2022-06-08 22:39:17.850750,7,-0.09654922485,0.3577560425,9.807754669,0.0007554611657,0.0002576024272,-0.0004562383983,37.72306605,15.18092706
2022-06-08 22:39:17.900488,7,-0.06735992432,0.3573069763,9.801318054,0.002165747341,0.0003182156943,0.0005290267291,37.72306605,15.18092706
2022-06-08 22:39:17.950228,7,-0.09131011963,0.3519181824,9.823771362,-0.0008005764103,-0.0008258800954,0.001688680262,37.72306605,15.18092706
2022-06-08 22:39:17.999968,7,-0.06825805664,0.3465293884,9.807904358,0.001041652868,0.002103535458,-0.0004026001552,37.72306605,15.18092706
2022-06-08 22:39:18.049707,7,-0.076640625,0.3540138245,9.817783813,0.00154969818,-0.0004915720783,3.157288302e-05,37.72306605,15.18092706
2022-06-08 22:39:18.099446,7,-0.09340576172,0.3406915283,9.810449066,0.0003875921248,0.0001092464663,-0.002906537615,37.72306605,15.18092706
2022-06-08 22:39:18.149187,7,-0.09385482788,0.3483256531,9.821376343,0.0002726186067,-0.0008380017243,-0.001242066617,37.72306605,15.18092706
2022-06-08 22:39:18.198926,7,-0.08711883545,0.3607498169,9.823471985,-0.001142749563,-0.001513407566,-0.0007225847803,37.72306605,15.18092706
2022-06-08 22:39:18.248666,7,-0.08831634521,0.3610491943,9.801018677,-0.003518881276,-0.0001403307542,-0.001280167606,37.72306605,15.18092706
2022-06-08 22:39:18.298404,7,-0.08592132568,0.3402424622,9.816586304,-0.002129239496,0.0007531289011,-0.001297938405,37.72306605,15.18092706
2022-06-08 22:39:18.348145,7,-0.08906478882,0.3516188049,9.803114319,-0.002507684287,-0.0004381360486,-0.0003522259649,37.72306605,15.18092706
2022-06-08 22:39:18.397883,7,-0.08053253174,0.3565585327,9.817933502,0.001209500944,0.001282630488,-0.001119956258,37.72306605,15.18092706
2022-06-08 22:39:18.447623,7,-0.08307723999,0.3558100891,9.809850311,-0.0005605123006,-0.001267057844,-0.003317837138,37.72306605,15.18092706
2022-06-08 22:39:18.497363,7,-0.0802331543,0.3394940186,9.808054047,0.002148866886,0.001168772578,0.001200211002,37.72306605,15.18092706
2022-06-08 22:39:18.547102,7,-0.09520202637,0.3502716064,9.813742218,-0.0008808341809,-0.0001569814049,0.0003578972537,37.72306605,15.18092706
2022-06-08 22:39:18.596842,7,-0.09145980835,0.3447331238,9.802365875,0.0007574084448,-0.001335409936,-0.0003899298608,37.72306605,15.18092706
2022-06-08 22:39:18.646582,7,-0.07065307617,0.3478765869,9.82751358,-0.003306976287,0.002406565472,1.546065323e-05,37.72306605,15.18092706
2022-06-08 22:39:18.696320,7,-0.09610015869,0.3493734741,9.798773346,0.001128231408,0.0004035788588,-0.0007731969235,37.72306605,15.18092706
2022-06-08 22:39:18.746061,7,-0.07978408813,0.3459306335,9.82407074,0.0008748906548,-0.0004021385685,0.001075798296,37.72306605,15.18092706
2022-06-08 22:39:18.795800,7,-0.09639953613,0.3504212952,9.817185059,-0.001225663,-0.001991331577,0.0004172014305,37.72306605,15.18092706
2022-06-08 22:39:18.845540,7,-0.08726852417,0.3513194275,9.83110611,-0.001894889399,0.002093834803,-0.0002934137592,37.72306605,15.18092706
2022-06-08 22:39:18.895279,7,-0.07978408813,0.3432362366,9.820328522,0.002860618057,0.001121131238,0.001909405226,37.72306605,15.18092706
2022-06-08 22:39:18.945019,7,-0.0889151001,0.3603007507,9.806856537,0.00101204752,0.001043038908,-0.0005760090426,37.72306605,15.18092706
2022-06-08 22:39:18.994759,7,-0.08936416626,0.3535647583,9.800120544,-0.00324582844,0.0009187329561,0.0001768022776,37.72306605,15.18092706
2022-06-08 22:39:19.044498,7,-0.07918533325,0.3502716064,9.812544708,-0.001526757493,-0.001397418324,-0.001371599035,37.72306605,15.18092706
2022-06-08 22:39:19.094238,7,-0.08337661743,0.3498225403,9.805958405,-0.001209492912,-0.0002967035398,0.0001997237559,37.72306605,15.18092706
2022-06-08 22:39:19.143977,7,-0.08592132568,0.3582051086,9.81119751,-0.0008251562249,0.002364615444,0.0006430576323,37.72306605,15.18092706
2022-06-08 22:39:19.193717,7,-0.08951385498,0.3641926575,9.808203735,-0.0008359190542,0.0001862449571,0.001117716893,37.72306605,15.18092706
2022-06-08 22:39:19.243456,7,-0.07274871826,0.3502716064,9.822274475,0.001667629229,-0.001084778458,0.0002179746516,37.72306605,15.18092706
2022-06-08 22:39:19.293196,7,-0.09490264893,0.35102005,9.796078949,0.001563075348,-0.0001700585708,0.00188654149,37.72306605,15.18092706
2022-06-08 22:39:19.342935,7,-0.08382568359,0.3634442139,9.797725525,0.001659482601,0.0002200785093,-0.0002081001876,37.72306605,15.18092706
2022-06-08 22:39:19.392675,7,-0.08637039185,0.3477268982,9.813143463,-0.0005570653593,0.0007245931774,0.0005363775417,37.72306605,15.18092706
2022-06-08 22:39:19.442414,7,-0.0809815979,0.3525169373,9.815089417,0.0003286886495,-0.0003975857981,0.001334853121,37.72306605,15.18092706
2022-06-08 22:39:19.492154,7,-0.08292755127,0.3582051086,9.803713074,0.00263466686,0.001188706141,0.0004659674596,37.72306605,15.18092706
2022-06-08 22:39:19.541893,7,-0.09624984741,0.3668870544,9.808952179,-0.001121107256,-0.00243977597,0.0009442819282,37.72306605,15.18092706
2022-06-08 22:39:19.591633,7,-0.0896635437,0.3558100891,9.808353424,-0.0002640848979,0.0001070466824,-0.001092409482,37.72306605,15.18092706
2022-06-08 22:39:19.641372,7,-0.07274871826,0.3396437073,9.812245331,-0.000494253356,-0.0004126736894,-0.0001139772357,37.72306605,15.18092706
2022-06-08 22:39:19.691112,7,-0.08637039185,0.3534150696,9.819580078,-0.002016466577,-0.001754932571,0.002032875782,37.72306605,15.18092706
2022-06-08 22:39:19.740852,7,-0.07963439941,0.3716770935,9.820777588,-0.0005873939954,0.001373301726,-0.0005939834518,37.72306605,15.18092706
2022-06-08 22:39:19.790591,7,-0.07978408813,0.3534150696,9.817634125,-0.001814817311,-6.149895489e-05,0.001192456344,37.72306605,15.18092706
2022-06-08 22:39:19.840331,7,-0.08427474976,0.3481759644,9.814041595,0.0009932318935,-0.0001422874629,-0.0002040404361,37.72306605,15.18092706
2022-06-08 22:39:19.890070,7,-0.07484436035,0.340841217,9.816735992,0.0004300815053,-0.0002388688736,-4.419172183e-05,37.72306605,15.18092706
2022-06-08 22:39:19.939810,7,-0.08756790161,0.3501219177,9.805509338,0.003858724143,-0.00113767013,-4.335260019e-05,37.72306605,15.18092706
2022-06-08 22:39:19.989549,7,-0.08068222046,0.3538641357,9.808652802,0.001039301511,-0.0006119767204,0.0003323113779,37.72306605,15.18092706
2022-06-08 22:39:20.039289,7,-0.07993377686,0.3588038635,9.829010468,0.0005790528376,-0.00167202251,0.0005264037754,37.72306605,15.18092706
2022-06-08 22:39:20.089028,7,-0.07244934082,0.3486250305,9.826016693,-0.0005715586012,-0.0003984980285,0.0002379593207,37.72306605,15.18092706
2022-06-08 22:39:20.138768,7,-0.1121168518,0.356408844,9.81,-0.001893432578,-0.0004865713418,-0.0004885577364,37.72306605,15.18092706
2022-06-08 22:39:20.188507,7,-0.08053253174,0.3544628906,9.811347198,-0.0006366996095,0.0005991267972,-0.0001784946071,37.72306605,15.18092706
2022-06-08 22:39:20.238247,7,-0.1040336609,0.3540138245,9.819430389,-0.001170255011,-4.204362631e-05,-0.0008838226204,37.72306605,15.18092706
2022-06-08 22:39:20.287987,7,-0.07259902954,0.3610491943,9.823022919,0.002642717678,0.001461471897,-0.001738228602,37.72306605,15.18092706
2022-06-08 22:39:20.337726,7,-0.07140151978,0.3483256531,9.811646576,0.00082659896,-0.0002365596592,-0.001294215675,37.72306605,15.18092706
2022-06-08 22:39:20.387466,7,-0.07768844604,0.3616479492,9.824968872,-0.00291874283,-3.378652036e-05,-0.0009816531092,37.72306605,15.18092706
2022-06-08 22:39:20.437205,7,-0.08292755127,0.3646417236,9.804910583,-0.0005379538052,-0.0001070639119,0.0007341647288,37.72306605,15.18092706
2022-06-08 22:39:20.486945,7,-0.06810836792,0.3558100891,9.814340973,-0.001251224428,-0.0001830710098,9.736744687e-05,37.72306605,15.18092706
2022-06-08 22:39:20.536684,7,-0.08232879639,0.3441343689,9.80880249,-0.000530554913,-0.001639615744,0.0002583487658,37.72306605,15.18092706
2022-06-08 22:39:20.586424,7,-0.07634124756,0.3399430847,9.801018677,0.000628081325,0.0001999814995,0.001385805546,37.72306605,15.18092706
2022-06-08 22:39:20.636163,7,-0.0896635437,0.3501219177,9.81,-0.003079351503,-0.0001697135158,0.00149300159,37.72306605,15.18092706
2022-06-08 22:39:20.685903,7,-0.07813751221,0.3447331238,9.805060272,-4.055153113e-05,0.001189918257,-0.0007372966502,37.72306605,15.18092706
2022-06-08 22:39:20.735642,7,-0.08711883545,0.3483256531,9.817334747,0.001512910589,0.0001525017433,0.0002102900762,37.72306605,15.18092706
2022-06-08 22:39:20.785382,7,-0.08951385498,0.3505709839,9.800419922,-0.0008868533187,-0.0004369886592,0.0005180727458,37.72306605,15.18092706
2022-06-08 22:39:20.835122,7,-0.08382568359,0.3544628906,9.81119751,-0.001321512973,0.003403263167,0.000759639428,37.72306605,15.18092706
2022-06-08 22:39:20.884861,7,-0.09475296021,0.3519181824,9.816885681,0.002412331756,-0.00102016842,0.001632882631,37.72306605,15.18092706
2022-06-08 22:39:20.934601,7,-0.08801696777,0.3514691162,9.806706848,-0.000256356434,-8.759088814e-05,-0.001239140285,37.72306605,15.18092706
2022-06-08 22:39:20.984340,7,-0.09415420532,0.3475772095,9.809700623,0.001121282345,-0.002034238074,0.003013185225,37.72306605,15.18092706
2022-06-08 22:39:21.034080,7,-0.08367599487,0.3594026184,9.811796265,-0.002176069655,-0.001280081924,0.0008314289153,37.72306605,15.18092706
2022-06-08 22:39:21.083819,7,-0.1031355286,0.3550616455,9.811646576,0.0008335280581,-1.48974359e-05,0.0008982761065,37.72306605,15.18092706
